STUDYID,USUBJID,VSSEQ,VISIT,VISITDY,VISITDTC,VSTEST,VSORRES,VSORRESU
TEST-001-001,TEST-001-001-CN001001,1,SCR,-14,2025-01-09,SYSBP,119.0,mmHg
TEST-001-001,TEST-001-001-CN004002,1,SCR,-14,2025-01-24,SYSBP,130.0,mmHg
TEST-001-001,TEST-001-001-CN003003,1,SCR,-14,2025-03-17,SYSBP,107.0,mmHg
TEST-001-001,TEST-001-001-CN008004,1,SCR,-14,2025-05-25,SYSBP,120.0,mmHg
TEST-001-001,TEST-001-001-CN006005,1,SCR,-14,2025-03-15,SYSBP,124.0,mmHg
TEST-001-001,TEST-001-001-CN002007,1,SCR,-14,2025-05-12,SYSBP,101.0,mmHg
TEST-001-001,TEST-001-001-CN002008,1,SCR,-14,2025-01-13,SYSBP,110.0,mmHg
TEST-001-001,TEST-001-001-CN004009,1,SCR,-14,2025-05-13,SYSBP,105.0,mmHg
TEST-001-001,TEST-001-001-CN009010,1,SCR,-14,2025-03-09,SYSBP,120.0,mmHg
TEST-001-001,TEST-001-001-CN002011,1,SCR,-14,2025-04-14,SYSBP,110.0,mmHg
TEST-001-001,TEST-001-001-CN001012,1,SCR,-14,2025-02-01,SYSBP,137.0,mmHg
TEST-001-001,TEST-001-001-CN005013,1,SCR,-14,2025-05-10,SYSBP,134.0,mmHg
TEST-001-001,TEST-001-001-CN004014,1,SCR,-14,2025-05-27,SYSBP,124.0,mmHg
TEST-001-001,TEST-001-001-CN009015,1,SCR,-14,2025-04-09,SYSBP,120.0,mmHg
TEST-001-001,TEST-001-001-CN009016,1,SCR,-14,2025-02-05,SYSBP,,mmHg
TEST-001-001,TEST-001-001-CN010017,1,SCR,-14,2025-03-07,SYSBP,117.0,mmHg
TEST-001-001,TEST-001-001-CN003018,1,SCR,-14,2025-02-17,SYSBP,120.0,mmHg
TEST-001-001,TEST-001-001-CN008019,1,SCR,-14,2025-04-21,SYSBP,112.0,mmHg
TEST-001-001,TEST-001-001-CN010020,1,SCR,-14,2025-02-18,SYSBP,114.0,mmHg
TEST-001-001,TEST-001-001-CN010021,1,SCR,-14,2025-05-24,SYSBP,119.0,mmHg
TEST-001-001,TEST-001-001-CN010022,1,SCR,-14,2025-03-14,SYSBP,129.0,mmHg
TEST-001-001,TEST-001-001-CN010023,1,SCR,-14,2025-01-11,SYSBP,122.0,mmHg
TEST-001-001,TEST-001-001-CN005024,1,SCR,-14,2025-02-04,SYSBP,119.0,mmHg
TEST-001-001,TEST-001-001-CN009025,1,SCR,-14,2025-02-14,SYSBP,122.0,mmHg
TEST-001-001,TEST-001-001-CN004026,1,SCR,-14,2025-03-03,SYSBP,118.0,mmHg
TEST-001-001,TEST-001-001-CN006027,1,SCR,-14,2025-01-03,SYSBP,120.0,mmHg
TEST-001-001,TEST-001-001-CN005028,1,SCR,-14,2025-03-25,SYSBP,123.0,mmHg
TEST-001-001,TEST-001-001-CN010029,1,SCR,-14,2024-12-24,SYSBP,103.0,mmHg
TEST-001-001,TEST-001-001-CN007030,1,SCR,-14,2025-02-07,SYSBP,125.0,mmHg
TEST-001-001,TEST-001-001-CN002031,1,SCR,-14,2025-01-02,SYSBP,126.0,mmHg
TEST-001-001,TEST-001-001-CN002032,1,SCR,-14,2025-03-21,SYSBP,126.0,mmHg
TEST-001-001,TEST-001-001-CN004033,1,SCR,-14,2025-02-13,SYSBP,129.0,mmHg
TEST-001-001,TEST-001-001-CN005034,1,SCR,-14,2025-02-19,SYSBP,117.0,mmHg
TEST-001-001,TEST-001-001-CN005035,1,SCR,-14,2025-03-14,SYSBP,108.0,mmHg
TEST-001-001,TEST-001-001-CN005036,1,SCR,-14,2025-01-27,SYSBP,115.0,mmHg
TEST-001-001,TEST-001-001-CN007037,1,SCR,-14,2025-04-07,SYSBP,115.0,mmHg
TEST-001-001,TEST-001-001-CN009038,1,SCR,-14,2025-04-14,SYSBP,130.0,mmHg
TEST-001-001,TEST-001-001-CN002039,1,SCR,-14,2025-01-28,SYSBP,121.0,mmHg
TEST-001-001,TEST-001-001-CN003040,1,SCR,-14,2025-01-11,SYSBP,130.0,mmHg
TEST-001-001,TEST-001-001-CN008041,1,SCR,-14,2025-02-01,SYSBP,118.0,mmHg
TEST-001-001,TEST-001-001-CN004042,1,SCR,-14,2025-04-27,SYSBP,122.0,mmHg
TEST-001-001,TEST-001-001-CN006043,1,SCR,-14,2024-12-19,SYSBP,98.0,mmHg
TEST-001-001,TEST-001-001-CN003044,1,SCR,-14,2025-03-10,SYSBP,137.0,mmHg
TEST-001-001,TEST-001-001-CN006045,1,SCR,-14,2025-01-06,SYSBP,,mmHg
TEST-001-001,TEST-001-001-CN005046,1,SCR,-14,2025-01-10,SYSBP,137.0,mmHg
TEST-001-001,TEST-001-001-CN006047,1,SCR,-14,2025-04-05,SYSBP,119.0,mmHg
TEST-001-001,TEST-001-001-CN006048,1,SCR,-14,2025-01-07,SYSBP,,mmHg
TEST-001-001,TEST-001-001-CN001049,1,SCR,-14,2025-02-06,SYSBP,101.0,mmHg
TEST-001-001,TEST-001-001-CN004050,1,SCR,-14,2024-12-23,SYSBP,124.0,mmHg
TEST-001-001,TEST-001-001-CN005051,1,SCR,-14,2025-04-25,SYSBP,123.0,mmHg
TEST-001-001,TEST-001-001-CN005052,1,SCR,-14,2025-01-09,SYSBP,110.0,mmHg
TEST-001-001,TEST-001-001-CN006053,1,SCR,-14,2025-02-17,SYSBP,129.0,mmHg
TEST-001-001,TEST-001-001-CN002054,1,SCR,-14,2024-12-22,SYSBP,124.0,mmHg
TEST-001-001,TEST-001-001-CN006055,1,SCR,-14,2025-03-19,SYSBP,113.0,mmHg
TEST-001-001,TEST-001-001-CN008056,1,SCR,-14,2025-02-13,SYSBP,117.0,mmHg
TEST-001-001,TEST-001-001-CN004057,1,SCR,-14,2025-04-27,SYSBP,103.0,mmHg
TEST-001-001,TEST-001-001-CN007058,1,SCR,-14,2025-04-09,SYSBP,119.0,mmHg
TEST-001-001,TEST-001-001-CN009059,1,SCR,-14,2025-04-10,SYSBP,114.0,mmHg
TEST-001-001,TEST-001-001-CN009060,1,SCR,-14,2024-12-18,SYSBP,108.0,mmHg
TEST-001-001,TEST-001-001-CN002062,1,SCR,-14,2025-01-13,SYSBP,128.0,mmHg
TEST-001-001,TEST-001-001-CN009064,1,SCR,-14,2025-02-23,SYSBP,119.0,mmHg
TEST-001-001,TEST-001-001-CN009065,1,SCR,-14,2025-03-18,SYSBP,109.0,mmHg
TEST-001-001,TEST-001-001-CN010066,1,SCR,-14,2024-12-29,SYSBP,96.0,mmHg
TEST-001-001,TEST-001-001-CN007067,1,SCR,-14,2025-01-11,SYSBP,129.0,mmHg
TEST-001-001,TEST-001-001-CN002068,1,SCR,-14,2025-03-26,SYSBP,124.0,mmHg
TEST-001-001,TEST-001-001-CN003069,1,SCR,-14,2024-12-22,SYSBP,124.0,mmHg
TEST-001-001,TEST-001-001-CN003070,1,SCR,-14,2025-02-03,SYSBP,130.0,mmHg
TEST-001-001,TEST-001-001-CN005071,1,SCR,-14,2025-01-06,SYSBP,123.0,mmHg
TEST-001-001,TEST-001-001-CN006072,1,SCR,-14,2025-01-01,SYSBP,110.0,mmHg
TEST-001-001,TEST-001-001-CN006073,1,SCR,-14,2025-01-29,SYSBP,119.0,mmHg
TEST-001-001,TEST-001-001-CN001074,1,SCR,-14,2025-01-13,SYSBP,113.0,mmHg
TEST-001-001,TEST-001-001-CN003075,1,SCR,-14,2025-03-09,SYSBP,114.0,mmHg
TEST-001-001,TEST-001-001-CN003076,1,SCR,-14,2025-02-09,SYSBP,108.0,mmHg
TEST-001-001,TEST-001-001-CN008077,1,SCR,-14,2025-01-11,SYSBP,110.0,mmHg
TEST-001-001,TEST-001-001-CN005078,1,SCR,-14,2025-02-27,SYSBP,103.0,mmHg
TEST-001-001,TEST-001-001-CN005079,1,SCR,-14,2025-02-22,SYSBP,97.0,mmHg
TEST-001-001,TEST-001-001-CN003080,1,SCR,-14,2025-03-21,SYSBP,103.0,mmHg
TEST-001-001,TEST-001-001-CN001081,1,SCR,-14,2025-04-03,SYSBP,140.0,mmHg
TEST-001-001,TEST-001-001-CN003082,1,SCR,-14,2025-02-17,SYSBP,111.0,mmHg
TEST-001-001,TEST-001-001-CN009083,1,SCR,-14,2025-04-17,SYSBP,109.0,mmHg
TEST-001-001,TEST-001-001-CN006084,1,SCR,-14,2025-01-11,SYSBP,138.0,mmHg
TEST-001-001,TEST-001-001-CN010085,1,SCR,-14,2025-01-16,SYSBP,121.0,mmHg
TEST-001-001,TEST-001-001-CN008086,1,SCR,-14,2025-02-20,SYSBP,128.0,mmHg
TEST-001-001,TEST-001-001-CN001087,1,SCR,-14,2025-04-25,SYSBP,110.0,mmHg
TEST-001-001,TEST-001-001-CN006088,1,SCR,-14,2025-04-19,SYSBP,117.0,mmHg
TEST-001-001,TEST-001-001-CN009089,1,SCR,-14,2025-01-14,SYSBP,114.0,mmHg
TEST-001-001,TEST-001-001-CN009090,1,SCR,-14,2025-04-08,SYSBP,134.0,mmHg
TEST-001-001,TEST-001-001-CN005091,1,SCR,-14,2025-04-27,SYSBP,116.0,mmHg
TEST-001-001,TEST-001-001-CN001092,1,SCR,-14,2025-03-03,SYSBP,109.0,mmHg
TEST-001-001,TEST-001-001-CN006093,1,SCR,-14,2025-02-04,SYSBP,130.0,mmHg
TEST-001-001,TEST-001-001-CN004094,1,SCR,-14,2025-03-23,SYSBP,117.0,mmHg
TEST-001-001,TEST-001-001-CN004096,1,SCR,-14,2025-02-27,SYSBP,129.0,mmHg
TEST-001-001,TEST-001-001-CN002097,1,SCR,-14,2025-01-05,SYSBP,126.0,mmHg
TEST-001-001,TEST-001-001-CN004098,1,SCR,-14,2025-05-20,SYSBP,131.0,mmHg
TEST-001-001,TEST-001-001-CN009099,1,SCR,-14,2025-01-29,SYSBP,94.0,mmHg
TEST-001-001,TEST-001-001-CN006100,1,SCR,-14,2025-05-19,SYSBP,127.0,mmHg
TEST-001-001,TEST-001-001-CN009101,1,SCR,-14,2025-04-02,SYSBP,99.0,mmHg
TEST-001-001,TEST-001-001-CN010102,1,SCR,-14,2025-05-06,SYSBP,120.0,mmHg
TEST-001-001,TEST-001-001-CN003103,1,SCR,-14,2025-01-01,SYSBP,118.0,mmHg
TEST-001-001,TEST-001-001-CN009104,1,SCR,-14,2025-01-16,SYSBP,100.0,mmHg
TEST-001-001,TEST-001-001-CN004105,1,SCR,-14,2025-03-16,SYSBP,132.0,mmHg
TEST-001-001,TEST-001-001-CN010106,1,SCR,-14,2024-12-27,SYSBP,96.0,mmHg
TEST-001-001,TEST-001-001-CN005107,1,SCR,-14,2025-04-18,SYSBP,111.0,mmHg
TEST-001-001,TEST-001-001-CN007108,1,SCR,-14,2025-05-22,SYSBP,149.0,mmHg
TEST-001-001,TEST-001-001-CN009110,1,SCR,-14,2025-03-28,SYSBP,130.0,mmHg
TEST-001-001,TEST-001-001-CN010111,1,SCR,-14,2025-03-02,SYSBP,107.0,mmHg
TEST-001-001,TEST-001-001-CN005112,1,SCR,-14,2025-02-09,SYSBP,126.0,mmHg
TEST-001-001,TEST-001-001-CN010113,1,SCR,-14,2025-02-15,SYSBP,103.0,mmHg
TEST-001-001,TEST-001-001-CN003115,1,SCR,-14,2025-05-07,SYSBP,121.0,mmHg
TEST-001-001,TEST-001-001-CN010116,1,SCR,-14,2024-12-31,SYSBP,,mmHg
TEST-001-001,TEST-001-001-CN006117,1,SCR,-14,2025-05-13,SYSBP,103.0,mmHg
TEST-001-001,TEST-001-001-CN002118,1,SCR,-14,2025-04-07,SYSBP,120.0,mmHg
TEST-001-001,TEST-001-001-CN008119,1,SCR,-14,2025-01-25,SYSBP,129.0,mmHg
TEST-001-001,TEST-001-001-CN008120,1,SCR,-14,2025-02-01,SYSBP,105.0,mmHg
TEST-001-001,TEST-001-001-CN007121,1,SCR,-14,2025-04-11,SYSBP,114.0,mmHg
TEST-001-001,TEST-001-001-CN009122,1,SCR,-14,2025-02-03,SYSBP,127.0,mmHg
TEST-001-001,TEST-001-001-CN004123,1,SCR,-14,2025-01-06,SYSBP,116.0,mmHg
TEST-001-001,TEST-001-001-CN005124,1,SCR,-14,2025-01-05,SYSBP,99.0,mmHg
TEST-001-001,TEST-001-001-CN009125,1,SCR,-14,2025-01-24,SYSBP,117.0,mmHg
TEST-001-001,TEST-001-001-CN005126,1,SCR,-14,2025-02-06,SYSBP,98.0,mmHg
TEST-001-001,TEST-001-001-CN001127,1,SCR,-14,2025-03-22,SYSBP,131.0,mmHg
TEST-001-001,TEST-001-001-CN006128,1,SCR,-14,2025-03-30,SYSBP,126.0,mmHg
TEST-001-001,TEST-001-001-CN007129,1,SCR,-14,2025-03-14,SYSBP,112.0,mmHg
TEST-001-001,TEST-001-001-CN010130,1,SCR,-14,2025-01-28,SYSBP,118.0,mmHg
TEST-001-001,TEST-001-001-CN003131,1,SCR,-14,2024-12-30,SYSBP,117.0,mmHg
TEST-001-001,TEST-001-001-CN008132,1,SCR,-14,2025-03-02,SYSBP,134.0,mmHg
TEST-001-001,TEST-001-001-CN001133,1,SCR,-14,2025-04-01,SYSBP,125.0,mmHg
TEST-001-001,TEST-001-001-CN006134,1,SCR,-14,2025-04-21,SYSBP,120.0,mmHg
TEST-001-001,TEST-001-001-CN003135,1,SCR,-14,2024-12-23,SYSBP,133.0,mmHg
TEST-001-001,TEST-001-001-CN005136,1,SCR,-14,2025-02-06,SYSBP,123.0,mmHg
TEST-001-001,TEST-001-001-CN002137,1,SCR,-14,2024-12-23,SYSBP,115.0,mmHg
TEST-001-001,TEST-001-001-CN003138,1,SCR,-14,2025-03-01,SYSBP,111.0,mmHg
TEST-001-001,TEST-001-001-CN008139,1,SCR,-14,2025-02-01,SYSBP,117.0,mmHg
TEST-001-001,TEST-001-001-CN006140,1,SCR,-14,2024-12-28,SYSBP,125.0,mmHg
TEST-001-001,TEST-001-001-CN003141,1,SCR,-14,2025-05-04,SYSBP,135.0,mmHg
TEST-001-001,TEST-001-001-CN006142,1,SCR,-14,2025-04-22,SYSBP,109.0,mmHg
TEST-001-001,TEST-001-001-CN004143,1,SCR,-14,2025-05-18,SYSBP,126.0,mmHg
TEST-001-001,TEST-001-001-CN006144,1,SCR,-14,2025-01-13,SYSBP,125.0,mmHg
TEST-001-001,TEST-001-001-CN009145,1,SCR,-14,2025-03-16,SYSBP,80.0,mmHg
TEST-001-001,TEST-001-001-CN009146,1,SCR,-14,2025-05-13,SYSBP,101.0,mmHg
TEST-001-001,TEST-001-001-CN003147,1,SCR,-14,2025-03-24,SYSBP,137.0,mmHg
TEST-001-001,TEST-001-001-CN009148,1,SCR,-14,2025-04-13,SYSBP,127.0,mmHg
TEST-001-001,TEST-001-001-CN004149,1,SCR,-14,2025-01-14,SYSBP,96.0,mmHg
TEST-001-001,TEST-001-001-CN008150,1,SCR,-14,2025-01-17,SYSBP,130.0,mmHg
TEST-001-001,TEST-001-001-CN010151,1,SCR,-14,2025-04-08,SYSBP,112.0,mmHg
TEST-001-001,TEST-001-001-CN004152,1,SCR,-14,2025-05-06,SYSBP,113.0,mmHg
TEST-001-001,TEST-001-001-CN007153,1,SCR,-14,2025-01-20,SYSBP,119.0,mmHg
TEST-001-001,TEST-001-001-CN002154,1,SCR,-14,2025-02-26,SYSBP,134.0,mmHg
TEST-001-001,TEST-001-001-CN008155,1,SCR,-14,2025-03-02,SYSBP,132.0,mmHg
TEST-001-001,TEST-001-001-CN003156,1,SCR,-14,2025-01-29,SYSBP,107.0,mmHg
TEST-001-001,TEST-001-001-CN002157,1,SCR,-14,2025-02-12,SYSBP,113.0,mmHg
TEST-001-001,TEST-001-001-CN005158,1,SCR,-14,2025-01-03,SYSBP,137.0,mmHg
TEST-001-001,TEST-001-001-CN005159,1,SCR,-14,2025-04-19,SYSBP,110.0,mmHg
TEST-001-001,TEST-001-001-CN009160,1,SCR,-14,2024-12-28,SYSBP,105.0,mmHg
TEST-001-001,TEST-001-001-CN001161,1,SCR,-14,2025-02-10,SYSBP,97.0,mmHg
TEST-001-001,TEST-001-001-CN010162,1,SCR,-14,2025-02-04,SYSBP,126.0,mmHg
TEST-001-001,TEST-001-001-CN004163,1,SCR,-14,2024-12-23,SYSBP,136.0,mmHg
TEST-001-001,TEST-001-001-CN002164,1,SCR,-14,2025-04-30,SYSBP,114.0,mmHg
TEST-001-001,TEST-001-001-CN007165,1,SCR,-14,2025-01-22,SYSBP,127.0,mmHg
TEST-001-001,TEST-001-001-CN006166,1,SCR,-14,2025-03-28,SYSBP,131.0,mmHg
TEST-001-001,TEST-001-001-CN008167,1,SCR,-14,2025-03-09,SYSBP,114.0,mmHg
TEST-001-001,TEST-001-001-CN002168,1,SCR,-14,2025-01-02,SYSBP,116.0,mmHg
TEST-001-001,TEST-001-001-CN006169,1,SCR,-14,2025-01-31,SYSBP,120.0,mmHg
TEST-001-001,TEST-001-001-CN003170,1,SCR,-14,2025-03-27,SYSBP,113.0,mmHg
TEST-001-001,TEST-001-001-CN004171,1,SCR,-14,2025-02-18,SYSBP,124.0,mmHg
TEST-001-001,TEST-001-001-CN003173,1,SCR,-14,2025-04-29,SYSBP,106.0,mmHg
TEST-001-001,TEST-001-001-CN010174,1,SCR,-14,2025-04-02,SYSBP,121.0,mmHg
TEST-001-001,TEST-001-001-CN005175,1,SCR,-14,2025-05-05,SYSBP,144.0,mmHg
TEST-001-001,TEST-001-001-CN008176,1,SCR,-14,2025-01-18,SYSBP,101.0,mmHg
TEST-001-001,TEST-001-001-CN002177,1,SCR,-14,2025-05-13,SYSBP,,mmHg
TEST-001-001,TEST-001-001-CN001178,1,SCR,-14,2025-03-30,SYSBP,,mmHg
TEST-001-001,TEST-001-001-CN009179,1,SCR,-14,2025-05-18,SYSBP,138.0,mmHg
TEST-001-001,TEST-001-001-CN008180,1,SCR,-14,2025-02-06,SYSBP,126.0,mmHg
TEST-001-001,TEST-001-001-CN005181,1,SCR,-14,2025-04-22,SYSBP,112.0,mmHg
TEST-001-001,TEST-001-001-CN006182,1,SCR,-14,2024-12-25,SYSBP,109.0,mmHg
TEST-001-001,TEST-001-001-CN006183,1,SCR,-14,2025-03-15,SYSBP,113.0,mmHg
TEST-001-001,TEST-001-001-CN009184,1,SCR,-14,2025-01-20,SYSBP,97.0,mmHg
TEST-001-001,TEST-001-001-CN002185,1,SCR,-14,2025-03-11,SYSBP,123.0,mmHg
TEST-001-001,TEST-001-001-CN009186,1,SCR,-14,2025-05-29,SYSBP,123.0,mmHg
TEST-001-001,TEST-001-001-CN004188,1,SCR,-14,2025-03-02,SYSBP,127.0,mmHg
TEST-001-001,TEST-001-001-CN010189,1,SCR,-14,2025-02-20,SYSBP,121.0,mmHg
TEST-001-001,TEST-001-001-CN005190,1,SCR,-14,2025-03-19,SYSBP,113.0,mmHg
TEST-001-001,TEST-001-001-CN005191,1,SCR,-14,2025-03-22,SYSBP,126.0,mmHg
TEST-001-001,TEST-001-001-CN004192,1,SCR,-14,2025-01-27,SYSBP,116.0,mmHg
TEST-001-001,TEST-001-001-CN004193,1,SCR,-14,2025-02-16,SYSBP,108.0,mmHg
TEST-001-001,TEST-001-001-CN007194,1,SCR,-14,2025-01-30,SYSBP,111.0,mmHg
TEST-001-001,TEST-001-001-CN004195,1,SCR,-14,2025-05-23,SYSBP,129.0,mmHg
TEST-001-001,TEST-001-001-CN002196,1,SCR,-14,2025-03-15,SYSBP,114.0,mmHg
TEST-001-001,TEST-001-001-CN004197,1,SCR,-14,2025-04-12,SYSBP,112.0,mmHg
TEST-001-001,TEST-001-001-CN008198,1,SCR,-14,2025-02-14,SYSBP,97.0,mmHg
TEST-001-001,TEST-001-001-CN002199,1,SCR,-14,2025-01-16,SYSBP,124.0,mmHg
TEST-001-001,TEST-001-001-CN004200,1,SCR,-14,2025-03-08,SYSBP,123.0,mmHg
TEST-001-001,TEST-001-001-CN001001,2,BASE,0,2025-01-20,SYSBP,124.0,mmHg
TEST-001-001,TEST-001-001-CN004002,2,BASE,0,2025-02-06,SYSBP,106.0,mmHg
TEST-001-001,TEST-001-001-CN003003,2,BASE,0,2025-04-05,SYSBP,112.0,mmHg
TEST-001-001,TEST-001-001-CN008004,2,BASE,0,2025-06-09,SYSBP,127.0,mmHg
TEST-001-001,TEST-001-001-CN006005,2,BASE,0,2025-03-29,SYSBP,108.0,mmHg
TEST-001-001,TEST-001-001-CN009006,1,BASE,0,2025-01-12,SYSBP,120.0,mmHg
TEST-001-001,TEST-001-001-CN002007,2,BASE,0,2025-05-27,SYSBP,118.0,mmHg
TEST-001-001,TEST-001-001-CN002008,2,BASE,0,2025-02-01,SYSBP,140.0,mmHg
TEST-001-001,TEST-001-001-CN004009,2,BASE,0,2025-05-26,SYSBP,105.0,mmHg
TEST-001-001,TEST-001-001-CN009010,2,BASE,0,2025-03-28,SYSBP,91.0,mmHg
TEST-001-001,TEST-001-001-CN002011,2,BASE,0,2025-04-27,SYSBP,123.0,mmHg
TEST-001-001,TEST-001-001-CN001012,2,BASE,0,2025-02-14,SYSBP,112.0,mmHg
TEST-001-001,TEST-001-001-CN005013,2,BASE,0,2025-05-26,SYSBP,129.0,mmHg
TEST-001-001,TEST-001-001-CN004014,2,BASE,0,2025-06-04,SYSBP,108.0,mmHg
TEST-001-001,TEST-001-001-CN009015,2,BASE,0,2025-04-23,SYSBP,106.0,mmHg
TEST-001-001,TEST-001-001-CN009016,2,BASE,0,2025-02-21,SYSBP,113.0,mmHg
TEST-001-001,TEST-001-001-CN010017,2,BASE,0,2025-03-21,SYSBP,110.0,mmHg
TEST-001-001,TEST-001-001-CN003018,2,BASE,0,2025-02-28,SYSBP,130.0,mmHg
TEST-001-001,TEST-001-001-CN008019,2,BASE,0,2025-04-30,SYSBP,136.0,mmHg
TEST-001-001,TEST-001-001-CN010020,2,BASE,0,2025-03-06,SYSBP,105.0,mmHg
TEST-001-001,TEST-001-001-CN010021,2,BASE,0,2025-06-06,SYSBP,141.0,mmHg
TEST-001-001,TEST-001-001-CN010022,2,BASE,0,2025-03-31,SYSBP,115.0,mmHg
TEST-001-001,TEST-001-001-CN010023,2,BASE,0,2025-01-21,SYSBP,123.0,mmHg
TEST-001-001,TEST-001-001-CN005024,2,BASE,0,2025-02-20,SYSBP,93.0,mmHg
TEST-001-001,TEST-001-001-CN009025,2,BASE,0,2025-02-24,SYSBP,126.0,mmHg
TEST-001-001,TEST-001-001-CN004026,2,BASE,0,2025-03-19,SYSBP,125.0,mmHg
TEST-001-001,TEST-001-001-CN006027,2,BASE,0,2025-01-16,SYSBP,135.0,mmHg
TEST-001-001,TEST-001-001-CN005028,2,BASE,0,2025-04-08,SYSBP,120.0,mmHg
TEST-001-001,TEST-001-001-CN010029,2,BASE,0,2025-01-07,SYSBP,110.0,mmHg
TEST-001-001,TEST-001-001-CN007030,2,BASE,0,2025-02-22,SYSBP,118.0,mmHg
TEST-001-001,TEST-001-001-CN002031,2,BASE,0,2025-01-17,SYSBP,128.0,mmHg
TEST-001-001,TEST-001-001-CN002032,2,BASE,0,2025-04-05,SYSBP,110.0,mmHg
TEST-001-001,TEST-001-001-CN004033,2,BASE,0,2025-02-27,SYSBP,117.0,mmHg
TEST-001-001,TEST-001-001-CN005034,2,BASE,0,2025-03-07,SYSBP,127.0,mmHg
TEST-001-001,TEST-001-001-CN005035,2,BASE,0,2025-03-27,SYSBP,121.0,mmHg
TEST-001-001,TEST-001-001-CN005036,2,BASE,0,2025-02-09,SYSBP,115.0,mmHg
TEST-001-001,TEST-001-001-CN009038,2,BASE,0,2025-04-29,SYSBP,,mmHg
TEST-001-001,TEST-001-001-CN002039,2,BASE,0,2025-02-05,SYSBP,132.0,mmHg
TEST-001-001,TEST-001-001-CN003040,2,BASE,0,2025-01-26,SYSBP,106.0,mmHg
TEST-001-001,TEST-001-001-CN008041,2,BASE,0,2025-02-16,SYSBP,105.0,mmHg
TEST-001-001,TEST-001-001-CN004042,2,BASE,0,2025-05-10,SYSBP,123.0,mmHg
TEST-001-001,TEST-001-001-CN006043,2,BASE,0,2025-01-01,SYSBP,129.0,mmHg
TEST-001-001,TEST-001-001-CN003044,2,BASE,0,2025-03-19,SYSBP,110.0,mmHg
TEST-001-001,TEST-001-001-CN006045,2,BASE,0,2025-01-15,SYSBP,130.0,mmHg
TEST-001-001,TEST-001-001-CN005046,2,BASE,0,2025-01-22,SYSBP,129.0,mmHg
TEST-001-001,TEST-001-001-CN006047,2,BASE,0,2025-04-13,SYSBP,133.0,mmHg
TEST-001-001,TEST-001-001-CN006048,2,BASE,0,2025-01-17,SYSBP,103.0,mmHg
TEST-001-001,TEST-001-001-CN001049,2,BASE,0,2025-02-18,SYSBP,117.0,mmHg
TEST-001-001,TEST-001-001-CN004050,2,BASE,0,2025-01-04,SYSBP,145.0,mmHg
TEST-001-001,TEST-001-001-CN005051,2,BASE,0,2025-05-07,SYSBP,137.0,mmHg
TEST-001-001,TEST-001-001-CN005052,2,BASE,0,2025-01-21,SYSBP,,mmHg
TEST-001-001,TEST-001-001-CN006053,2,BASE,0,2025-03-02,SYSBP,115.0,mmHg
TEST-001-001,TEST-001-001-CN006055,2,BASE,0,2025-04-05,SYSBP,109.0,mmHg
TEST-001-001,TEST-001-001-CN008056,2,BASE,0,2025-02-22,SYSBP,118.0,mmHg
TEST-001-001,TEST-001-001-CN004057,2,BASE,0,2025-05-11,SYSBP,124.0,mmHg
TEST-001-001,TEST-001-001-CN007058,2,BASE,0,2025-04-24,SYSBP,130.0,mmHg
TEST-001-001,TEST-001-001-CN009059,2,BASE,0,2025-04-21,SYSBP,143.0,mmHg
TEST-001-001,TEST-001-001-CN009060,2,BASE,0,2025-01-06,SYSBP,92.0,mmHg
TEST-001-001,TEST-001-001-CN002062,2,BASE,0,2025-01-29,SYSBP,115.0,mmHg
TEST-001-001,TEST-001-001-CN009063,1,BASE,0,2025-03-30,SYSBP,113.0,mmHg
TEST-001-001,TEST-001-001-CN009064,2,BASE,0,2025-03-04,SYSBP,123.0,mmHg
TEST-001-001,TEST-001-001-CN009065,2,BASE,0,2025-04-01,SYSBP,103.0,mmHg
TEST-001-001,TEST-001-001-CN010066,2,BASE,0,2025-01-07,SYSBP,111.0,mmHg
TEST-001-001,TEST-001-001-CN007067,2,BASE,0,2025-01-26,SYSBP,126.0,mmHg
TEST-001-001,TEST-001-001-CN002068,2,BASE,0,2025-04-07,SYSBP,122.0,mmHg
TEST-001-001,TEST-001-001-CN003069,2,BASE,0,2025-01-04,SYSBP,108.0,mmHg
TEST-001-001,TEST-001-001-CN003070,2,BASE,0,2025-02-18,SYSBP,105.0,mmHg
TEST-001-001,TEST-001-001-CN005071,2,BASE,0,2025-01-20,SYSBP,116.0,mmHg
TEST-001-001,TEST-001-001-CN006072,2,BASE,0,2025-01-13,SYSBP,110.0,mmHg
TEST-001-001,TEST-001-001-CN006073,2,BASE,0,2025-02-11,SYSBP,125.0,mmHg
TEST-001-001,TEST-001-001-CN001074,2,BASE,0,2025-01-28,SYSBP,118.0,mmHg
TEST-001-001,TEST-001-001-CN003075,2,BASE,0,2025-03-21,SYSBP,123.0,mmHg
TEST-001-001,TEST-001-001-CN003076,2,BASE,0,2025-02-18,SYSBP,137.0,mmHg
TEST-001-001,TEST-001-001-CN008077,2,BASE,0,2025-01-23,SYSBP,,mmHg
TEST-001-001,TEST-001-001-CN005078,2,BASE,0,2025-03-14,SYSBP,98.0,mmHg
TEST-001-001,TEST-001-001-CN005079,2,BASE,0,2025-03-12,SYSBP,121.0,mmHg
TEST-001-001,TEST-001-001-CN003080,2,BASE,0,2025-04-05,SYSBP,131.0,mmHg
TEST-001-001,TEST-001-001-CN001081,2,BASE,0,2025-04-20,SYSBP,111.0,mmHg
TEST-001-001,TEST-001-001-CN003082,2,BASE,0,2025-02-26,SYSBP,118.0,mmHg
TEST-001-001,TEST-001-001-CN009083,2,BASE,0,2025-04-27,SYSBP,124.0,mmHg
TEST-001-001,TEST-001-001-CN006084,2,BASE,0,2025-01-21,SYSBP,115.0,mmHg
TEST-001-001,TEST-001-001-CN010085,2,BASE,0,2025-01-28,SYSBP,117.0,mmHg
TEST-001-001,TEST-001-001-CN008086,2,BASE,0,2025-03-05,SYSBP,100.0,mmHg
TEST-001-001,TEST-001-001-CN001087,2,BASE,0,2025-05-10,SYSBP,130.0,mmHg
TEST-001-001,TEST-001-001-CN006088,2,BASE,0,2025-05-04,SYSBP,123.0,mmHg
TEST-001-001,TEST-001-001-CN009089,2,BASE,0,2025-02-03,SYSBP,97.0,mmHg
TEST-001-001,TEST-001-001-CN009090,2,BASE,0,2025-04-19,SYSBP,109.0,mmHg
TEST-001-001,TEST-001-001-CN005091,2,BASE,0,2025-05-13,SYSBP,128.0,mmHg
TEST-001-001,TEST-001-001-CN001092,2,BASE,0,2025-03-21,SYSBP,122.0,mmHg
TEST-001-001,TEST-001-001-CN006093,2,BASE,0,2025-02-20,SYSBP,129.0,mmHg
TEST-001-001,TEST-001-001-CN004094,2,BASE,0,2025-04-06,SYSBP,106.0,mmHg
TEST-001-001,TEST-001-001-CN007095,1,BASE,0,2025-01-01,SYSBP,127.0,mmHg
TEST-001-001,TEST-001-001-CN004096,2,BASE,0,2025-03-19,SYSBP,125.0,mmHg
TEST-001-001,TEST-001-001-CN002097,2,BASE,0,2025-01-21,SYSBP,122.0,mmHg
TEST-001-001,TEST-001-001-CN004098,2,BASE,0,2025-06-05,SYSBP,120.0,mmHg
TEST-001-001,TEST-001-001-CN006100,2,BASE,0,2025-05-31,SYSBP,113.0,mmHg
TEST-001-001,TEST-001-001-CN009101,2,BASE,0,2025-04-16,SYSBP,110.0,mmHg
TEST-001-001,TEST-001-001-CN010102,2,BASE,0,2025-05-20,SYSBP,121.0,mmHg
TEST-001-001,TEST-001-001-CN003103,2,BASE,0,2025-01-16,SYSBP,115.0,mmHg
TEST-001-001,TEST-001-001-CN009104,2,BASE,0,2025-01-31,SYSBP,120.0,mmHg
TEST-001-001,TEST-001-001-CN004105,2,BASE,0,2025-04-01,SYSBP,129.0,mmHg
TEST-001-001,TEST-001-001-CN010106,2,BASE,0,2025-01-12,SYSBP,127.0,mmHg
TEST-001-001,TEST-001-001-CN005107,2,BASE,0,2025-04-29,SYSBP,131.0,mmHg
TEST-001-001,TEST-001-001-CN007108,2,BASE,0,2025-06-06,SYSBP,114.0,mmHg
TEST-001-001,TEST-001-001-CN003109,1,BASE,0,2025-04-01,SYSBP,131.0,mmHg
TEST-001-001,TEST-001-001-CN009110,2,BASE,0,2025-04-13,SYSBP,118.0,mmHg
TEST-001-001,TEST-001-001-CN010111,2,BASE,0,2025-03-12,SYSBP,115.0,mmHg
TEST-001-001,TEST-001-001-CN005112,2,BASE,0,2025-02-24,SYSBP,115.0,mmHg
TEST-001-001,TEST-001-001-CN010113,2,BASE,0,2025-02-26,SYSBP,111.0,mmHg
TEST-001-001,TEST-001-001-CN003114,1,BASE,0,2025-04-05,SYSBP,116.0,mmHg
TEST-001-001,TEST-001-001-CN003115,2,BASE,0,2025-05-19,SYSBP,112.0,mmHg
TEST-001-001,TEST-001-001-CN010116,2,BASE,0,2025-01-14,SYSBP,124.0,mmHg
TEST-001-001,TEST-001-001-CN006117,2,BASE,0,2025-05-25,SYSBP,125.0,mmHg
TEST-001-001,TEST-001-001-CN002118,2,BASE,0,2025-04-17,SYSBP,107.0,mmHg
TEST-001-001,TEST-001-001-CN008119,2,BASE,0,2025-02-10,SYSBP,94.0,mmHg
TEST-001-001,TEST-001-001-CN008120,2,BASE,0,2025-02-15,SYSBP,114.0,mmHg
TEST-001-001,TEST-001-001-CN007121,2,BASE,0,2025-04-24,SYSBP,123.0,mmHg
TEST-001-001,TEST-001-001-CN009122,2,BASE,0,2025-02-18,SYSBP,134.0,mmHg
TEST-001-001,TEST-001-001-CN004123,2,BASE,0,2025-01-15,SYSBP,102.0,mmHg
TEST-001-001,TEST-001-001-CN005124,2,BASE,0,2025-01-18,SYSBP,109.0,mmHg
TEST-001-001,TEST-001-001-CN009125,2,BASE,0,2025-02-02,SYSBP,133.0,mmHg
TEST-001-001,TEST-001-001-CN005126,2,BASE,0,2025-02-19,SYSBP,119.0,mmHg
TEST-001-001,TEST-001-001-CN001127,2,BASE,0,2025-04-04,SYSBP,115.0,mmHg
TEST-001-001,TEST-001-001-CN006128,2,BASE,0,2025-04-17,SYSBP,117.0,mmHg
TEST-001-001,TEST-001-001-CN007129,2,BASE,0,2025-03-25,SYSBP,126.0,mmHg
TEST-001-001,TEST-001-001-CN010130,2,BASE,0,2025-02-11,SYSBP,119.0,mmHg
TEST-001-001,TEST-001-001-CN003131,2,BASE,0,2025-01-12,SYSBP,141.0,mmHg
TEST-001-001,TEST-001-001-CN008132,2,BASE,0,2025-03-17,SYSBP,110.0,mmHg
TEST-001-001,TEST-001-001-CN001133,2,BASE,0,2025-04-15,SYSBP,124.0,mmHg
TEST-001-001,TEST-001-001-CN006134,2,BASE,0,2025-05-08,SYSBP,117.0,mmHg
TEST-001-001,TEST-001-001-CN003135,2,BASE,0,2025-01-08,SYSBP,114.0,mmHg
TEST-001-001,TEST-001-001-CN005136,2,BASE,0,2025-02-21,SYSBP,,mmHg
TEST-001-001,TEST-001-001-CN002137,2,BASE,0,2025-01-05,SYSBP,127.0,mmHg
TEST-001-001,TEST-001-001-CN008139,2,BASE,0,2025-02-14,SYSBP,114.0,mmHg
TEST-001-001,TEST-001-001-CN006140,2,BASE,0,2025-01-10,SYSBP,116.0,mmHg
TEST-001-001,TEST-001-001-CN003141,2,BASE,0,2025-05-20,SYSBP,119.0,mmHg
TEST-001-001,TEST-001-001-CN006142,2,BASE,0,2025-05-06,SYSBP,102.0,mmHg
TEST-001-001,TEST-001-001-CN004143,2,BASE,0,2025-06-05,SYSBP,124.0,mmHg
TEST-001-001,TEST-001-001-CN006144,2,BASE,0,2025-02-02,SYSBP,133.0,mmHg
TEST-001-001,TEST-001-001-CN009145,2,BASE,0,2025-04-01,SYSBP,130.0,mmHg
TEST-001-001,TEST-001-001-CN009146,2,BASE,0,2025-05-28,SYSBP,96.0,mmHg
TEST-001-001,TEST-001-001-CN003147,2,BASE,0,2025-04-12,SYSBP,126.0,mmHg
TEST-001-001,TEST-001-001-CN009148,2,BASE,0,2025-04-26,SYSBP,122.0,mmHg
TEST-001-001,TEST-001-001-CN004149,2,BASE,0,2025-01-28,SYSBP,122.0,mmHg
TEST-001-001,TEST-001-001-CN008150,2,BASE,0,2025-01-30,SYSBP,132.0,mmHg
TEST-001-001,TEST-001-001-CN010151,2,BASE,0,2025-04-22,SYSBP,111.0,mmHg
TEST-001-001,TEST-001-001-CN004152,2,BASE,0,2025-05-19,SYSBP,124.0,mmHg
TEST-001-001,TEST-001-001-CN008155,2,BASE,0,2025-03-15,SYSBP,140.0,mmHg
TEST-001-001,TEST-001-001-CN003156,2,BASE,0,2025-02-15,SYSBP,123.0,mmHg
TEST-001-001,TEST-001-001-CN002157,2,BASE,0,2025-02-25,SYSBP,116.0,mmHg
TEST-001-001,TEST-001-001-CN005158,2,BASE,0,2025-01-19,SYSBP,100.0,mmHg
TEST-001-001,TEST-001-001-CN005159,2,BASE,0,2025-05-06,SYSBP,116.0,mmHg
TEST-001-001,TEST-001-001-CN009160,2,BASE,0,2025-01-09,SYSBP,127.0,mmHg
TEST-001-001,TEST-001-001-CN001161,2,BASE,0,2025-02-24,SYSBP,124.0,mmHg
TEST-001-001,TEST-001-001-CN010162,2,BASE,0,2025-02-15,SYSBP,132.0,mmHg
TEST-001-001,TEST-001-001-CN004163,2,BASE,0,2025-01-06,SYSBP,112.0,mmHg
TEST-001-001,TEST-001-001-CN002164,2,BASE,0,2025-05-20,SYSBP,114.0,mmHg
TEST-001-001,TEST-001-001-CN007165,2,BASE,0,2025-02-08,SYSBP,97.0,mmHg
TEST-001-001,TEST-001-001-CN006166,2,BASE,0,2025-04-10,SYSBP,135.0,mmHg
TEST-001-001,TEST-001-001-CN008167,2,BASE,0,2025-03-21,SYSBP,129.0,mmHg
TEST-001-001,TEST-001-001-CN002168,2,BASE,0,2025-01-18,SYSBP,116.0,mmHg
TEST-001-001,TEST-001-001-CN006169,2,BASE,0,2025-02-17,SYSBP,122.0,mmHg
TEST-001-001,TEST-001-001-CN003170,2,BASE,0,2025-04-10,SYSBP,107.0,mmHg
TEST-001-001,TEST-001-001-CN004171,2,BASE,0,2025-03-07,SYSBP,113.0,mmHg
TEST-001-001,TEST-001-001-CN002172,1,BASE,0,2025-01-03,SYSBP,116.0,mmHg
TEST-001-001,TEST-001-001-CN003173,2,BASE,0,2025-05-12,SYSBP,144.0,mmHg
TEST-001-001,TEST-001-001-CN010174,2,BASE,0,2025-04-19,SYSBP,140.0,mmHg
TEST-001-001,TEST-001-001-CN005175,2,BASE,0,2025-05-20,SYSBP,108.0,mmHg
TEST-001-001,TEST-001-001-CN008176,2,BASE,0,2025-01-30,SYSBP,109.0,mmHg
TEST-001-001,TEST-001-001-CN002177,2,BASE,0,2025-05-23,SYSBP,113.0,mmHg
TEST-001-001,TEST-001-001-CN001178,2,BASE,0,2025-04-09,SYSBP,108.0,mmHg
TEST-001-001,TEST-001-001-CN009179,2,BASE,0,2025-06-01,SYSBP,98.0,mmHg
TEST-001-001,TEST-001-001-CN008180,2,BASE,0,2025-02-22,SYSBP,104.0,mmHg
TEST-001-001,TEST-001-001-CN005181,2,BASE,0,2025-05-11,SYSBP,121.0,mmHg
TEST-001-001,TEST-001-001-CN006182,2,BASE,0,2025-01-10,SYSBP,118.0,mmHg
TEST-001-001,TEST-001-001-CN006183,2,BASE,0,2025-03-24,SYSBP,119.0,mmHg
TEST-001-001,TEST-001-001-CN009184,2,BASE,0,2025-02-03,SYSBP,109.0,mmHg
TEST-001-001,TEST-001-001-CN002185,2,BASE,0,2025-03-23,SYSBP,107.0,mmHg
TEST-001-001,TEST-001-001-CN009186,2,BASE,0,2025-06-11,SYSBP,128.0,mmHg
TEST-001-001,TEST-001-001-CN001187,1,BASE,0,2025-04-25,SYSBP,144.0,mmHg
TEST-001-001,TEST-001-001-CN004188,2,BASE,0,2025-03-19,SYSBP,122.0,mmHg
TEST-001-001,TEST-001-001-CN010189,2,BASE,0,2025-03-07,SYSBP,97.0,mmHg
TEST-001-001,TEST-001-001-CN005190,2,BASE,0,2025-04-02,SYSBP,106.0,mmHg
TEST-001-001,TEST-001-001-CN005191,2,BASE,0,2025-04-05,SYSBP,,mmHg
TEST-001-001,TEST-001-001-CN004192,2,BASE,0,2025-02-12,SYSBP,105.0,mmHg
TEST-001-001,TEST-001-001-CN004193,2,BASE,0,2025-03-08,SYSBP,118.0,mmHg
TEST-001-001,TEST-001-001-CN004195,2,BASE,0,2025-06-06,SYSBP,100.0,mmHg
TEST-001-001,TEST-001-001-CN002196,2,BASE,0,2025-03-29,SYSBP,120.0,mmHg
TEST-001-001,TEST-001-001-CN004197,2,BASE,0,2025-05-02,SYSBP,154.0,mmHg
TEST-001-001,TEST-001-001-CN008198,2,BASE,0,2025-02-25,SYSBP,121.0,mmHg
TEST-001-001,TEST-001-001-CN002199,2,BASE,0,2025-02-04,SYSBP,126.0,mmHg
TEST-001-001,TEST-001-001-CN004200,2,BASE,0,2025-03-20,SYSBP,112.0,mmHg
TEST-001-001,TEST-001-001-CN001001,3,W6,42,2025-03-04,SYSBP,113.0,mmHg
TEST-001-001,TEST-001-001-CN004002,3,W6,42,2025-03-20,SYSBP,94.0,mmHg
TEST-001-001,TEST-001-001-CN003003,3,W6,42,2025-05-14,SYSBP,119.0,mmHg
TEST-001-001,TEST-001-001-CN008004,3,W6,42,2025-07-18,SYSBP,133.0,mmHg
TEST-001-001,TEST-001-001-CN009006,2,W6,42,2025-02-25,SYSBP,115.0,mmHg
TEST-001-001,TEST-001-001-CN002007,3,W6,42,2025-07-12,SYSBP,120.0,mmHg
TEST-001-001,TEST-001-001-CN002008,3,W6,42,2025-03-13,SYSBP,134.0,mmHg
TEST-001-001,TEST-001-001-CN004009,3,W6,42,2025-07-06,SYSBP,132.0,mmHg
TEST-001-001,TEST-001-001-CN009010,3,W6,42,2025-05-09,SYSBP,109.0,mmHg
TEST-001-001,TEST-001-001-CN002011,3,W6,42,2025-06-13,SYSBP,119.0,mmHg
TEST-001-001,TEST-001-001-CN001012,3,W6,42,2025-03-31,SYSBP,113.0,mmHg
TEST-001-001,TEST-001-001-CN005013,3,W6,42,2025-07-06,SYSBP,88.0,mmHg
TEST-001-001,TEST-001-001-CN009015,3,W6,42,2025-06-04,SYSBP,105.0,mmHg
TEST-001-001,TEST-001-001-CN009016,3,W6,42,2025-03-30,SYSBP,138.0,mmHg
TEST-001-001,TEST-001-001-CN010017,3,W6,42,2025-05-02,SYSBP,117.0,mmHg
TEST-001-001,TEST-001-001-CN003018,3,W6,42,2025-04-13,SYSBP,100.0,mmHg
TEST-001-001,TEST-001-001-CN008019,3,W6,42,2025-06-16,SYSBP,132.0,mmHg
TEST-001-001,TEST-001-001-CN010020,3,W6,42,2025-04-16,SYSBP,102.0,mmHg
TEST-001-001,TEST-001-001-CN010021,3,W6,42,2025-07-16,SYSBP,130.0,mmHg
TEST-001-001,TEST-001-001-CN010022,3,W6,42,2025-05-09,SYSBP,145.0,mmHg
TEST-001-001,TEST-001-001-CN010023,3,W6,42,2025-03-03,SYSBP,130.0,mmHg
TEST-001-001,TEST-001-001-CN005024,3,W6,42,2025-04-04,SYSBP,127.0,mmHg
TEST-001-001,TEST-001-001-CN009025,3,W6,42,2025-04-09,SYSBP,108.0,mmHg
TEST-001-001,TEST-001-001-CN004026,3,W6,42,2025-04-30,SYSBP,123.0,mmHg
TEST-001-001,TEST-001-001-CN006027,3,W6,42,2025-02-23,SYSBP,107.0,mmHg
TEST-001-001,TEST-001-001-CN005028,3,W6,42,2025-05-21,SYSBP,130.0,mmHg
TEST-001-001,TEST-001-001-CN010029,3,W6,42,2025-02-21,SYSBP,114.0,mmHg
TEST-001-001,TEST-001-001-CN007030,3,W6,42,2025-03-31,SYSBP,111.0,mmHg
TEST-001-001,TEST-001-001-CN002031,3,W6,42,2025-02-28,SYSBP,130.0,mmHg
TEST-001-001,TEST-001-001-CN002032,3,W6,42,2025-05-19,SYSBP,118.0,mmHg
TEST-001-001,TEST-001-001-CN004033,3,W6,42,2025-04-06,SYSBP,125.0,mmHg
TEST-001-001,TEST-001-001-CN005034,3,W6,42,2025-04-15,SYSBP,117.0,mmHg
TEST-001-001,TEST-001-001-CN005035,3,W6,42,2025-05-06,SYSBP,132.0,mmHg
TEST-001-001,TEST-001-001-CN005036,3,W6,42,2025-03-22,SYSBP,124.0,mmHg
TEST-001-001,TEST-001-001-CN007037,2,W6,42,2025-06-02,SYSBP,137.0,mmHg
TEST-001-001,TEST-001-001-CN009038,3,W6,42,2025-06-07,SYSBP,139.0,mmHg
TEST-001-001,TEST-001-001-CN002039,3,W6,42,2025-03-19,SYSBP,106.0,mmHg
TEST-001-001,TEST-001-001-CN003040,3,W6,42,2025-03-10,SYSBP,117.0,mmHg
TEST-001-001,TEST-001-001-CN008041,3,W6,42,2025-03-30,SYSBP,119.0,mmHg
TEST-001-001,TEST-001-001-CN004042,3,W6,42,2025-06-21,SYSBP,118.0,mmHg
TEST-001-001,TEST-001-001-CN006043,3,W6,42,2025-02-15,SYSBP,103.0,mmHg
TEST-001-001,TEST-001-001-CN003044,3,W6,42,2025-05-06,SYSBP,141.0,mmHg
TEST-001-001,TEST-001-001-CN006045,3,W6,42,2025-03-03,SYSBP,114.0,mmHg
TEST-001-001,TEST-001-001-CN005046,3,W6,42,2025-03-02,SYSBP,124.0,mmHg
TEST-001-001,TEST-001-001-CN006047,3,W6,42,2025-05-25,SYSBP,,mmHg
TEST-001-001,TEST-001-001-CN006048,3,W6,42,2025-03-03,SYSBP,109.0,mmHg
TEST-001-001,TEST-001-001-CN001049,3,W6,42,2025-03-30,SYSBP,110.0,mmHg
TEST-001-001,TEST-001-001-CN004050,3,W6,42,2025-02-16,SYSBP,128.0,mmHg
TEST-001-001,TEST-001-001-CN005051,3,W6,42,2025-06-18,SYSBP,99.0,mmHg
TEST-001-001,TEST-001-001-CN005052,3,W6,42,2025-03-03,SYSBP,110.0,mmHg
TEST-001-001,TEST-001-001-CN006053,3,W6,42,2025-04-09,SYSBP,133.0,mmHg
TEST-001-001,TEST-001-001-CN002054,2,W6,42,2025-02-17,SYSBP,113.0,mmHg
TEST-001-001,TEST-001-001-CN006055,3,W6,42,2025-05-15,SYSBP,125.0,mmHg
TEST-001-001,TEST-001-001-CN008056,3,W6,42,2025-04-10,SYSBP,123.0,mmHg
TEST-001-001,TEST-001-001-CN004057,3,W6,42,2025-06-23,SYSBP,105.0,mmHg
TEST-001-001,TEST-001-001-CN007058,3,W6,42,2025-06-09,SYSBP,116.0,mmHg
TEST-001-001,TEST-001-001-CN009059,3,W6,42,2025-05-30,SYSBP,128.0,mmHg
TEST-001-001,TEST-001-001-CN009060,3,W6,42,2025-02-16,SYSBP,131.0,mmHg
TEST-001-001,TEST-001-001-CN006061,1,W6,42,2025-03-14,SYSBP,125.0,mmHg
TEST-001-001,TEST-001-001-CN002062,3,W6,42,2025-03-09,SYSBP,124.0,mmHg
TEST-001-001,TEST-001-001-CN009063,2,W6,42,2025-05-11,SYSBP,114.0,mmHg
TEST-001-001,TEST-001-001-CN009064,3,W6,42,2025-04-16,SYSBP,115.0,mmHg
TEST-001-001,TEST-001-001-CN009065,3,W6,42,2025-05-16,SYSBP,114.0,mmHg
TEST-001-001,TEST-001-001-CN010066,3,W6,42,2025-02-18,SYSBP,103.0,mmHg
TEST-001-001,TEST-001-001-CN007067,3,W6,42,2025-03-05,SYSBP,124.0,mmHg
TEST-001-001,TEST-001-001-CN002068,3,W6,42,2025-05-18,SYSBP,130.0,mmHg
TEST-001-001,TEST-001-001-CN003069,3,W6,42,2025-02-12,SYSBP,122.0,mmHg
TEST-001-001,TEST-001-001-CN003070,3,W6,42,2025-04-05,SYSBP,120.0,mmHg
TEST-001-001,TEST-001-001-CN005071,3,W6,42,2025-03-04,SYSBP,140.0,mmHg
TEST-001-001,TEST-001-001-CN006072,3,W6,42,2025-03-02,SYSBP,119.0,mmHg
TEST-001-001,TEST-001-001-CN006073,3,W6,42,2025-03-27,SYSBP,113.0,mmHg
TEST-001-001,TEST-001-001-CN003075,3,W6,42,2025-05-05,SYSBP,121.0,mmHg
TEST-001-001,TEST-001-001-CN003076,3,W6,42,2025-04-07,SYSBP,134.0,mmHg
TEST-001-001,TEST-001-001-CN008077,3,W6,42,2025-03-08,SYSBP,93.0,mmHg
TEST-001-001,TEST-001-001-CN005079,3,W6,42,2025-04-18,SYSBP,108.0,mmHg
TEST-001-001,TEST-001-001-CN003080,3,W6,42,2025-05-11,SYSBP,122.0,mmHg
TEST-001-001,TEST-001-001-CN001081,3,W6,42,2025-05-31,SYSBP,118.0,mmHg
TEST-001-001,TEST-001-001-CN009083,3,W6,42,2025-06-08,SYSBP,132.0,mmHg
TEST-001-001,TEST-001-001-CN006084,3,W6,42,2025-03-08,SYSBP,115.0,mmHg
TEST-001-001,TEST-001-001-CN010085,3,W6,42,2025-03-09,SYSBP,131.0,mmHg
TEST-001-001,TEST-001-001-CN008086,3,W6,42,2025-04-18,SYSBP,142.0,mmHg
TEST-001-001,TEST-001-001-CN001087,3,W6,42,2025-06-19,SYSBP,123.0,mmHg
TEST-001-001,TEST-001-001-CN006088,3,W6,42,2025-06-12,SYSBP,130.0,mmHg
TEST-001-001,TEST-001-001-CN009089,3,W6,42,2025-03-14,SYSBP,125.0,mmHg
TEST-001-001,TEST-001-001-CN009090,3,W6,42,2025-06-03,SYSBP,127.0,mmHg
TEST-001-001,TEST-001-001-CN005091,3,W6,42,2025-06-25,SYSBP,156.0,mmHg
TEST-001-001,TEST-001-001-CN001092,3,W6,42,2025-04-28,SYSBP,118.0,mmHg
TEST-001-001,TEST-001-001-CN006093,3,W6,42,2025-04-02,SYSBP,114.0,mmHg
TEST-001-001,TEST-001-001-CN004094,3,W6,42,2025-05-13,SYSBP,101.0,mmHg
TEST-001-001,TEST-001-001-CN007095,2,W6,42,2025-02-14,SYSBP,119.0,mmHg
TEST-001-001,TEST-001-001-CN004096,3,W6,42,2025-04-30,SYSBP,116.0,mmHg
TEST-001-001,TEST-001-001-CN002097,3,W6,42,2025-03-06,SYSBP,137.0,mmHg
TEST-001-001,TEST-001-001-CN004098,3,W6,42,2025-07-16,SYSBP,117.0,mmHg
TEST-001-001,TEST-001-001-CN009099,2,W6,42,2025-03-29,SYSBP,118.0,mmHg
TEST-001-001,TEST-001-001-CN006100,3,W6,42,2025-07-15,SYSBP,118.0,mmHg
TEST-001-001,TEST-001-001-CN009101,3,W6,42,2025-05-27,SYSBP,135.0,mmHg
TEST-001-001,TEST-001-001-CN010102,3,W6,42,2025-06-29,SYSBP,113.0,mmHg
TEST-001-001,TEST-001-001-CN009104,3,W6,42,2025-03-15,SYSBP,118.0,mmHg
TEST-001-001,TEST-001-001-CN004105,3,W6,42,2025-05-13,SYSBP,116.0,mmHg
TEST-001-001,TEST-001-001-CN010106,3,W6,42,2025-02-21,SYSBP,107.0,mmHg
TEST-001-001,TEST-001-001-CN005107,3,W6,42,2025-06-11,SYSBP,129.0,mmHg
TEST-001-001,TEST-001-001-CN007108,3,W6,42,2025-07-22,SYSBP,115.0,mmHg
TEST-001-001,TEST-001-001-CN003109,2,W6,42,2025-05-09,SYSBP,118.0,mmHg
TEST-001-001,TEST-001-001-CN009110,3,W6,42,2025-05-27,SYSBP,113.0,mmHg
TEST-001-001,TEST-001-001-CN010111,3,W6,42,2025-04-23,SYSBP,112.0,mmHg
TEST-001-001,TEST-001-001-CN005112,3,W6,42,2025-04-12,SYSBP,113.0,mmHg
TEST-001-001,TEST-001-001-CN010113,3,W6,42,2025-04-12,SYSBP,133.0,mmHg
TEST-001-001,TEST-001-001-CN003114,2,W6,42,2025-05-16,SYSBP,100.0,mmHg
TEST-001-001,TEST-001-001-CN003115,3,W6,42,2025-06-30,SYSBP,112.0,mmHg
TEST-001-001,TEST-001-001-CN010116,3,W6,42,2025-02-26,SYSBP,109.0,mmHg
TEST-001-001,TEST-001-001-CN006117,3,W6,42,2025-07-07,SYSBP,132.0,mmHg
TEST-001-001,TEST-001-001-CN002118,3,W6,42,2025-05-28,SYSBP,106.0,mmHg
TEST-001-001,TEST-001-001-CN008119,3,W6,42,2025-03-23,SYSBP,139.0,mmHg
TEST-001-001,TEST-001-001-CN008120,3,W6,42,2025-03-30,SYSBP,116.0,mmHg
TEST-001-001,TEST-001-001-CN007121,3,W6,42,2025-05-31,SYSBP,111.0,mmHg
TEST-001-001,TEST-001-001-CN009122,3,W6,42,2025-03-29,SYSBP,132.0,mmHg
TEST-001-001,TEST-001-001-CN004123,3,W6,42,2025-03-02,SYSBP,111.0,mmHg
TEST-001-001,TEST-001-001-CN005124,3,W6,42,2025-03-02,SYSBP,93.0,mmHg
TEST-001-001,TEST-001-001-CN009125,3,W6,42,2025-03-17,SYSBP,123.0,mmHg
TEST-001-001,TEST-001-001-CN005126,3,W6,42,2025-04-01,SYSBP,121.0,mmHg
TEST-001-001,TEST-001-001-CN001127,3,W6,42,2025-05-16,SYSBP,100.0,mmHg
TEST-001-001,TEST-001-001-CN006128,3,W6,42,2025-05-25,SYSBP,109.0,mmHg
TEST-001-001,TEST-001-001-CN007129,3,W6,42,2025-05-10,SYSBP,113.0,mmHg
TEST-001-001,TEST-001-001-CN010130,3,W6,42,2025-03-25,SYSBP,92.0,mmHg
TEST-001-001,TEST-001-001-CN003131,3,W6,42,2025-02-28,SYSBP,125.0,mmHg
TEST-001-001,TEST-001-001-CN008132,3,W6,42,2025-04-28,SYSBP,103.0,mmHg
TEST-001-001,TEST-001-001-CN001133,3,W6,42,2025-06-02,SYSBP,126.0,mmHg
TEST-001-001,TEST-001-001-CN006134,3,W6,42,2025-06-15,SYSBP,110.0,mmHg
TEST-001-001,TEST-001-001-CN005136,3,W6,42,2025-03-31,SYSBP,,mmHg
TEST-001-001,TEST-001-001-CN002137,3,W6,42,2025-02-14,SYSBP,133.0,mmHg
TEST-001-001,TEST-001-001-CN003138,2,W6,42,2025-04-21,SYSBP,132.0,mmHg
TEST-001-001,TEST-001-001-CN008139,3,W6,42,2025-03-28,SYSBP,117.0,mmHg
TEST-001-001,TEST-001-001-CN006140,3,W6,42,2025-02-18,SYSBP,130.0,mmHg
TEST-001-001,TEST-001-001-CN003141,3,W6,42,2025-07-04,SYSBP,139.0,mmHg
TEST-001-001,TEST-001-001-CN006142,3,W6,42,2025-06-22,SYSBP,111.0,mmHg
TEST-001-001,TEST-001-001-CN004143,3,W6,42,2025-07-15,SYSBP,127.0,mmHg
TEST-001-001,TEST-001-001-CN006144,3,W6,42,2025-03-13,SYSBP,115.0,mmHg
TEST-001-001,TEST-001-001-CN009145,3,W6,42,2025-05-09,SYSBP,120.0,mmHg
TEST-001-001,TEST-001-001-CN009146,3,W6,42,2025-07-05,SYSBP,121.0,mmHg
TEST-001-001,TEST-001-001-CN003147,3,W6,42,2025-05-20,SYSBP,139.0,mmHg
TEST-001-001,TEST-001-001-CN004149,3,W6,42,2025-03-15,SYSBP,119.0,mmHg
TEST-001-001,TEST-001-001-CN008150,3,W6,42,2025-03-13,SYSBP,128.0,mmHg
TEST-001-001,TEST-001-001-CN010151,3,W6,42,2025-06-03,SYSBP,116.0,mmHg
TEST-001-001,TEST-001-001-CN004152,3,W6,42,2025-06-25,SYSBP,117.0,mmHg
TEST-001-001,TEST-001-001-CN007153,2,W6,42,2025-03-16,SYSBP,98.0,mmHg
TEST-001-001,TEST-001-001-CN002154,2,W6,42,2025-04-21,SYSBP,120.0,mmHg
TEST-001-001,TEST-001-001-CN008155,3,W6,42,2025-04-24,SYSBP,98.0,mmHg
TEST-001-001,TEST-001-001-CN003156,3,W6,42,2025-03-27,SYSBP,123.0,mmHg
TEST-001-001,TEST-001-001-CN002157,3,W6,42,2025-04-08,SYSBP,123.0,mmHg
TEST-001-001,TEST-001-001-CN005158,3,W6,42,2025-03-04,SYSBP,103.0,mmHg
TEST-001-001,TEST-001-001-CN005159,3,W6,42,2025-06-16,SYSBP,95.0,mmHg
TEST-001-001,TEST-001-001-CN009160,3,W6,42,2025-02-20,SYSBP,118.0,mmHg
TEST-001-001,TEST-001-001-CN001161,3,W6,42,2025-04-06,SYSBP,103.0,mmHg
TEST-001-001,TEST-001-001-CN004163,3,W6,42,2025-02-19,SYSBP,127.0,mmHg
TEST-001-001,TEST-001-001-CN002164,3,W6,42,2025-06-25,SYSBP,114.0,mmHg
TEST-001-001,TEST-001-001-CN007165,3,W6,42,2025-03-24,SYSBP,117.0,mmHg
TEST-001-001,TEST-001-001-CN006166,3,W6,42,2025-05-20,SYSBP,128.0,mmHg
TEST-001-001,TEST-001-001-CN008167,3,W6,42,2025-04-29,SYSBP,108.0,mmHg
TEST-001-001,TEST-001-001-CN002168,3,W6,42,2025-02-28,SYSBP,118.0,mmHg
TEST-001-001,TEST-001-001-CN006169,3,W6,42,2025-03-31,SYSBP,129.0,mmHg
TEST-001-001,TEST-001-001-CN003170,3,W6,42,2025-05-18,SYSBP,104.0,mmHg
TEST-001-001,TEST-001-001-CN004171,3,W6,42,2025-04-17,SYSBP,106.0,mmHg
TEST-001-001,TEST-001-001-CN002172,2,W6,42,2025-02-14,SYSBP,131.0,mmHg
TEST-001-001,TEST-001-001-CN003173,3,W6,42,2025-06-29,SYSBP,121.0,mmHg
TEST-001-001,TEST-001-001-CN010174,3,W6,42,2025-06-02,SYSBP,116.0,mmHg
TEST-001-001,TEST-001-001-CN005175,3,W6,42,2025-06-28,SYSBP,118.0,mmHg
TEST-001-001,TEST-001-001-CN008176,3,W6,42,2025-03-17,SYSBP,120.0,mmHg
TEST-001-001,TEST-001-001-CN002177,3,W6,42,2025-07-02,SYSBP,117.0,mmHg
TEST-001-001,TEST-001-001-CN001178,3,W6,42,2025-05-21,SYSBP,113.0,mmHg
TEST-001-001,TEST-001-001-CN009179,3,W6,42,2025-07-16,SYSBP,123.0,mmHg
TEST-001-001,TEST-001-001-CN008180,3,W6,42,2025-04-05,SYSBP,96.0,mmHg
TEST-001-001,TEST-001-001-CN005181,3,W6,42,2025-06-18,SYSBP,117.0,mmHg
TEST-001-001,TEST-001-001-CN006182,3,W6,42,2025-02-17,SYSBP,125.0,mmHg
TEST-001-001,TEST-001-001-CN006183,3,W6,42,2025-05-04,SYSBP,135.0,mmHg
TEST-001-001,TEST-001-001-CN009184,3,W6,42,2025-03-11,SYSBP,107.0,mmHg
TEST-001-001,TEST-001-001-CN002185,3,W6,42,2025-05-05,SYSBP,121.0,mmHg
TEST-001-001,TEST-001-001-CN009186,3,W6,42,2025-07-19,SYSBP,108.0,mmHg
TEST-001-001,TEST-001-001-CN001187,2,W6,42,2025-05-31,SYSBP,121.0,mmHg
TEST-001-001,TEST-001-001-CN004188,3,W6,42,2025-04-27,SYSBP,115.0,mmHg
TEST-001-001,TEST-001-001-CN010189,3,W6,42,2025-04-15,SYSBP,113.0,mmHg
TEST-001-001,TEST-001-001-CN005190,3,W6,42,2025-05-14,SYSBP,123.0,mmHg
TEST-001-001,TEST-001-001-CN005191,3,W6,42,2025-05-17,SYSBP,121.0,mmHg
TEST-001-001,TEST-001-001-CN004192,3,W6,42,2025-03-26,SYSBP,119.0,mmHg
TEST-001-001,TEST-001-001-CN004193,3,W6,42,2025-04-17,SYSBP,118.0,mmHg
TEST-001-001,TEST-001-001-CN007194,2,W6,42,2025-03-30,SYSBP,123.0,mmHg
TEST-001-001,TEST-001-001-CN002196,3,W6,42,2025-05-09,SYSBP,132.0,mmHg
TEST-001-001,TEST-001-001-CN008198,3,W6,42,2025-04-10,SYSBP,141.0,mmHg
TEST-001-001,TEST-001-001-CN002199,3,W6,42,2025-03-17,SYSBP,114.0,mmHg
TEST-001-001,TEST-001-001-CN001001,4,W12,84,2025-04-17,SYSBP,119.0,mmHg
TEST-001-001,TEST-001-001-CN004002,4,W12,84,2025-05-01,SYSBP,138.0,mmHg
TEST-001-001,TEST-001-001-CN003003,4,W12,84,2025-06-22,SYSBP,114.0,mmHg
TEST-001-001,TEST-001-001-CN008004,4,W12,84,2025-08-31,SYSBP,117.0,mmHg
TEST-001-001,TEST-001-001-CN006005,3,W12,84,2025-06-21,SYSBP,129.0,mmHg
TEST-001-001,TEST-001-001-CN009006,3,W12,84,2025-04-06,SYSBP,111.0,mmHg
TEST-001-001,TEST-001-001-CN002007,4,W12,84,2025-08-22,SYSBP,109.0,mmHg
TEST-001-001,TEST-001-001-CN002008,4,W12,84,2025-04-22,SYSBP,112.0,mmHg
TEST-001-001,TEST-001-001-CN004009,4,W12,84,2025-08-23,SYSBP,123.0,mmHg
TEST-001-001,TEST-001-001-CN009010,4,W12,84,2025-06-18,SYSBP,98.0,mmHg
TEST-001-001,TEST-001-001-CN002011,4,W12,84,2025-07-22,SYSBP,127.0,mmHg
TEST-001-001,TEST-001-001-CN001012,4,W12,84,2025-05-13,SYSBP,123.0,mmHg
TEST-001-001,TEST-001-001-CN005013,4,W12,84,2025-08-21,SYSBP,132.0,mmHg
TEST-001-001,TEST-001-001-CN009015,4,W12,84,2025-07-19,SYSBP,143.0,mmHg
TEST-001-001,TEST-001-001-CN009016,4,W12,84,2025-05-14,SYSBP,108.0,mmHg
TEST-001-001,TEST-001-001-CN010017,4,W12,84,2025-06-14,SYSBP,138.0,mmHg
TEST-001-001,TEST-001-001-CN003018,4,W12,84,2025-05-27,SYSBP,126.0,mmHg
TEST-001-001,TEST-001-001-CN008019,4,W12,84,2025-07-22,SYSBP,,mmHg
TEST-001-001,TEST-001-001-CN010020,4,W12,84,2025-05-29,SYSBP,113.0,mmHg
TEST-001-001,TEST-001-001-CN010022,4,W12,84,2025-06-21,SYSBP,121.0,mmHg
TEST-001-001,TEST-001-001-CN010023,4,W12,84,2025-04-20,SYSBP,110.0,mmHg
TEST-001-001,TEST-001-001-CN005024,4,W12,84,2025-05-13,SYSBP,,mmHg
TEST-001-001,TEST-001-001-CN009025,4,W12,84,2025-05-21,SYSBP,131.0,mmHg
TEST-001-001,TEST-001-001-CN004026,4,W12,84,2025-06-12,SYSBP,88.0,mmHg
TEST-001-001,TEST-001-001-CN006027,4,W12,84,2025-04-08,SYSBP,135.0,mmHg
TEST-001-001,TEST-001-001-CN005028,4,W12,84,2025-06-28,SYSBP,120.0,mmHg
TEST-001-001,TEST-001-001-CN010029,4,W12,84,2025-04-06,SYSBP,116.0,mmHg
TEST-001-001,TEST-001-001-CN007030,4,W12,84,2025-05-14,SYSBP,119.0,mmHg
TEST-001-001,TEST-001-001-CN002031,4,W12,84,2025-04-10,SYSBP,118.0,mmHg
TEST-001-001,TEST-001-001-CN002032,4,W12,84,2025-07-01,SYSBP,127.0,mmHg
TEST-001-001,TEST-001-001-CN004033,4,W12,84,2025-05-21,SYSBP,151.0,mmHg
TEST-001-001,TEST-001-001-CN005034,4,W12,84,2025-05-30,SYSBP,113.0,mmHg
TEST-001-001,TEST-001-001-CN005035,4,W12,84,2025-06-20,SYSBP,109.0,mmHg
TEST-001-001,TEST-001-001-CN005036,4,W12,84,2025-05-01,SYSBP,141.0,mmHg
TEST-001-001,TEST-001-001-CN007037,3,W12,84,2025-07-13,SYSBP,128.0,mmHg
TEST-001-001,TEST-001-001-CN009038,4,W12,84,2025-07-18,SYSBP,132.0,mmHg
TEST-001-001,TEST-001-001-CN002039,4,W12,84,2025-05-04,SYSBP,110.0,mmHg
TEST-001-001,TEST-001-001-CN003040,4,W12,84,2025-04-19,SYSBP,122.0,mmHg
TEST-001-001,TEST-001-001-CN008041,4,W12,84,2025-05-10,SYSBP,113.0,mmHg
TEST-001-001,TEST-001-001-CN004042,4,W12,84,2025-08-06,SYSBP,106.0,mmHg
TEST-001-001,TEST-001-001-CN006043,4,W12,84,2025-03-30,SYSBP,114.0,mmHg
TEST-001-001,TEST-001-001-CN003044,4,W12,84,2025-06-16,SYSBP,127.0,mmHg
TEST-001-001,TEST-001-001-CN006045,4,W12,84,2025-04-15,SYSBP,118.0,mmHg
TEST-001-001,TEST-001-001-CN005046,4,W12,84,2025-04-18,SYSBP,114.0,mmHg
TEST-001-001,TEST-001-001-CN006047,4,W12,84,2025-07-06,SYSBP,140.0,mmHg
TEST-001-001,TEST-001-001-CN006048,4,W12,84,2025-04-15,SYSBP,134.0,mmHg
TEST-001-001,TEST-001-001-CN001049,4,W12,84,2025-05-12,SYSBP,107.0,mmHg
TEST-001-001,TEST-001-001-CN004050,4,W12,84,2025-03-29,SYSBP,122.0,mmHg
TEST-001-001,TEST-001-001-CN005051,4,W12,84,2025-07-28,SYSBP,114.0,mmHg
TEST-001-001,TEST-001-001-CN005052,4,W12,84,2025-04-11,SYSBP,111.0,mmHg
TEST-001-001,TEST-001-001-CN006053,4,W12,84,2025-05-24,SYSBP,116.0,mmHg
TEST-001-001,TEST-001-001-CN002054,3,W12,84,2025-04-02,SYSBP,115.0,mmHg
TEST-001-001,TEST-001-001-CN006055,4,W12,84,2025-06-29,SYSBP,130.0,mmHg
TEST-001-001,TEST-001-001-CN008056,4,W12,84,2025-05-19,SYSBP,128.0,mmHg
TEST-001-001,TEST-001-001-CN004057,4,W12,84,2025-08-01,SYSBP,114.0,mmHg
TEST-001-001,TEST-001-001-CN007058,4,W12,84,2025-07-16,SYSBP,117.0,mmHg
TEST-001-001,TEST-001-001-CN009059,4,W12,84,2025-07-11,SYSBP,124.0,mmHg
TEST-001-001,TEST-001-001-CN009060,4,W12,84,2025-03-30,SYSBP,146.0,mmHg
TEST-001-001,TEST-001-001-CN006061,2,W12,84,2025-04-24,SYSBP,125.0,mmHg
TEST-001-001,TEST-001-001-CN002062,4,W12,84,2025-04-21,SYSBP,120.0,mmHg
TEST-001-001,TEST-001-001-CN009064,4,W12,84,2025-06-02,SYSBP,137.0,mmHg
TEST-001-001,TEST-001-001-CN009065,4,W12,84,2025-06-29,SYSBP,119.0,mmHg
TEST-001-001,TEST-001-001-CN010066,4,W12,84,2025-04-01,SYSBP,108.0,mmHg
TEST-001-001,TEST-001-001-CN002068,4,W12,84,2025-06-29,SYSBP,121.0,mmHg
TEST-001-001,TEST-001-001-CN003069,4,W12,84,2025-03-26,SYSBP,106.0,mmHg
TEST-001-001,TEST-001-001-CN003070,4,W12,84,2025-05-11,SYSBP,127.0,mmHg
TEST-001-001,TEST-001-001-CN005071,4,W12,84,2025-04-16,SYSBP,108.0,mmHg
TEST-001-001,TEST-001-001-CN006072,4,W12,84,2025-04-11,SYSBP,135.0,mmHg
TEST-001-001,TEST-001-001-CN006073,4,W12,84,2025-05-11,SYSBP,105.0,mmHg
TEST-001-001,TEST-001-001-CN001074,3,W12,84,2025-04-18,SYSBP,106.0,mmHg
TEST-001-001,TEST-001-001-CN003075,4,W12,84,2025-06-15,SYSBP,124.0,mmHg
TEST-001-001,TEST-001-001-CN003076,4,W12,84,2025-05-16,SYSBP,142.0,mmHg
TEST-001-001,TEST-001-001-CN008077,4,W12,84,2025-04-17,SYSBP,130.0,mmHg
TEST-001-001,TEST-001-001-CN005078,3,W12,84,2025-06-11,SYSBP,126.0,mmHg
TEST-001-001,TEST-001-001-CN005079,4,W12,84,2025-05-30,SYSBP,132.0,mmHg
TEST-001-001,TEST-001-001-CN003080,4,W12,84,2025-06-24,SYSBP,125.0,mmHg
TEST-001-001,TEST-001-001-CN001081,4,W12,84,2025-07-10,SYSBP,122.0,mmHg
TEST-001-001,TEST-001-001-CN003082,3,W12,84,2025-05-21,SYSBP,118.0,mmHg
TEST-001-001,TEST-001-001-CN006084,4,W12,84,2025-04-18,SYSBP,,mmHg
TEST-001-001,TEST-001-001-CN010085,4,W12,84,2025-04-23,SYSBP,120.0,mmHg
TEST-001-001,TEST-001-001-CN008086,4,W12,84,2025-05-25,SYSBP,133.0,mmHg
TEST-001-001,TEST-001-001-CN001087,4,W12,84,2025-08-02,SYSBP,134.0,mmHg
TEST-001-001,TEST-001-001-CN006088,4,W12,84,2025-07-30,SYSBP,137.0,mmHg
TEST-001-001,TEST-001-001-CN009089,4,W12,84,2025-04-22,SYSBP,115.0,mmHg
TEST-001-001,TEST-001-001-CN009090,4,W12,84,2025-07-09,SYSBP,114.0,mmHg
TEST-001-001,TEST-001-001-CN005091,4,W12,84,2025-08-06,SYSBP,104.0,mmHg
TEST-001-001,TEST-001-001-CN001092,4,W12,84,2025-06-11,SYSBP,120.0,mmHg
TEST-001-001,TEST-001-001-CN006093,4,W12,84,2025-05-13,SYSBP,115.0,mmHg
TEST-001-001,TEST-001-001-CN004094,4,W12,84,2025-06-27,SYSBP,122.0,mmHg
TEST-001-001,TEST-001-001-CN007095,3,W12,84,2025-03-27,SYSBP,109.0,mmHg
TEST-001-001,TEST-001-001-CN004096,4,W12,84,2025-06-11,SYSBP,122.0,mmHg
TEST-001-001,TEST-001-001-CN002097,4,W12,84,2025-04-14,SYSBP,135.0,mmHg
TEST-001-001,TEST-001-001-CN004098,4,W12,84,2025-08-25,SYSBP,125.0,mmHg
TEST-001-001,TEST-001-001-CN009099,3,W12,84,2025-05-07,SYSBP,133.0,mmHg
TEST-001-001,TEST-001-001-CN006100,4,W12,84,2025-08-22,SYSBP,106.0,mmHg
TEST-001-001,TEST-001-001-CN009101,4,W12,84,2025-07-03,SYSBP,116.0,mmHg
TEST-001-001,TEST-001-001-CN010102,4,W12,84,2025-08-13,SYSBP,115.0,mmHg
TEST-001-001,TEST-001-001-CN009104,4,W12,84,2025-04-25,SYSBP,121.0,mmHg
TEST-001-001,TEST-001-001-CN004105,4,W12,84,2025-06-18,SYSBP,128.0,mmHg
TEST-001-001,TEST-001-001-CN010106,4,W12,84,2025-04-03,SYSBP,135.0,mmHg
TEST-001-001,TEST-001-001-CN005107,4,W12,84,2025-07-23,SYSBP,116.0,mmHg
TEST-001-001,TEST-001-001-CN007108,4,W12,84,2025-08-29,SYSBP,115.0,mmHg
TEST-001-001,TEST-001-001-CN009110,4,W12,84,2025-07-08,SYSBP,137.0,mmHg
TEST-001-001,TEST-001-001-CN010111,4,W12,84,2025-06-05,SYSBP,122.0,mmHg
TEST-001-001,TEST-001-001-CN005112,4,W12,84,2025-05-22,SYSBP,108.0,mmHg
TEST-001-001,TEST-001-001-CN010113,4,W12,84,2025-05-23,SYSBP,118.0,mmHg
TEST-001-001,TEST-001-001-CN003114,3,W12,84,2025-06-25,SYSBP,123.0,mmHg
TEST-001-001,TEST-001-001-CN003115,4,W12,84,2025-08-10,SYSBP,115.0,mmHg
TEST-001-001,TEST-001-001-CN010116,4,W12,84,2025-04-05,SYSBP,111.0,mmHg
TEST-001-001,TEST-001-001-CN006117,4,W12,84,2025-08-17,SYSBP,100.0,mmHg
TEST-001-001,TEST-001-001-CN002118,4,W12,84,2025-07-12,SYSBP,118.0,mmHg
TEST-001-001,TEST-001-001-CN008119,4,W12,84,2025-05-04,SYSBP,137.0,mmHg
TEST-001-001,TEST-001-001-CN008120,4,W12,84,2025-05-07,SYSBP,132.0,mmHg
TEST-001-001,TEST-001-001-CN007121,4,W12,84,2025-07-18,SYSBP,111.0,mmHg
TEST-001-001,TEST-001-001-CN009122,4,W12,84,2025-05-11,SYSBP,115.0,mmHg
TEST-001-001,TEST-001-001-CN004123,4,W12,84,2025-04-12,SYSBP,131.0,mmHg
TEST-001-001,TEST-001-001-CN005124,4,W12,84,2025-04-11,SYSBP,,mmHg
TEST-001-001,TEST-001-001-CN009125,4,W12,84,2025-04-30,SYSBP,100.0,mmHg
TEST-001-001,TEST-001-001-CN005126,4,W12,84,2025-05-15,SYSBP,109.0,mmHg
TEST-001-001,TEST-001-001-CN001127,4,W12,84,2025-06-30,SYSBP,129.0,mmHg
TEST-001-001,TEST-001-001-CN007129,4,W12,84,2025-06-17,SYSBP,107.0,mmHg
TEST-001-001,TEST-001-001-CN010130,4,W12,84,2025-05-05,SYSBP,114.0,mmHg
TEST-001-001,TEST-001-001-CN003131,4,W12,84,2025-04-10,SYSBP,107.0,mmHg
TEST-001-001,TEST-001-001-CN001133,4,W12,84,2025-07-14,SYSBP,144.0,mmHg
TEST-001-001,TEST-001-001-CN006134,4,W12,84,2025-07-31,SYSBP,122.0,mmHg
TEST-001-001,TEST-001-001-CN005136,4,W12,84,2025-05-17,SYSBP,144.0,mmHg
TEST-001-001,TEST-001-001-CN002137,4,W12,84,2025-03-29,SYSBP,137.0,mmHg
TEST-001-001,TEST-001-001-CN003138,3,W12,84,2025-06-03,SYSBP,105.0,mmHg
TEST-001-001,TEST-001-001-CN008139,4,W12,84,2025-05-05,SYSBP,138.0,mmHg
TEST-001-001,TEST-001-001-CN006140,4,W12,84,2025-04-05,SYSBP,110.0,mmHg
TEST-001-001,TEST-001-001-CN003141,4,W12,84,2025-08-10,SYSBP,113.0,mmHg
TEST-001-001,TEST-001-001-CN006142,4,W12,84,2025-07-30,SYSBP,119.0,mmHg
TEST-001-001,TEST-001-001-CN004143,4,W12,84,2025-08-28,SYSBP,137.0,mmHg
TEST-001-001,TEST-001-001-CN006144,4,W12,84,2025-04-22,SYSBP,113.0,mmHg
TEST-001-001,TEST-001-001-CN009145,4,W12,84,2025-06-19,SYSBP,112.0,mmHg
TEST-001-001,TEST-001-001-CN009146,4,W12,84,2025-08-18,SYSBP,112.0,mmHg
TEST-001-001,TEST-001-001-CN003147,4,W12,84,2025-07-05,SYSBP,119.0,mmHg
TEST-001-001,TEST-001-001-CN009148,3,W12,84,2025-07-19,SYSBP,128.0,mmHg
TEST-001-001,TEST-001-001-CN004149,4,W12,84,2025-04-27,SYSBP,120.0,mmHg
TEST-001-001,TEST-001-001-CN008150,4,W12,84,2025-04-27,SYSBP,110.0,mmHg
TEST-001-001,TEST-001-001-CN010151,4,W12,84,2025-07-14,SYSBP,122.0,mmHg
TEST-001-001,TEST-001-001-CN004152,4,W12,84,2025-08-11,SYSBP,121.0,mmHg
TEST-001-001,TEST-001-001-CN007153,3,W12,84,2025-04-25,SYSBP,127.0,mmHg
TEST-001-001,TEST-001-001-CN002154,3,W12,84,2025-05-30,SYSBP,107.0,mmHg
TEST-001-001,TEST-001-001-CN008155,4,W12,84,2025-06-02,SYSBP,,mmHg
TEST-001-001,TEST-001-001-CN003156,4,W12,84,2025-05-05,SYSBP,156.0,mmHg
TEST-001-001,TEST-001-001-CN002157,4,W12,84,2025-05-19,SYSBP,134.0,mmHg
TEST-001-001,TEST-001-001-CN005158,4,W12,84,2025-04-10,SYSBP,127.0,mmHg
TEST-001-001,TEST-001-001-CN005159,4,W12,84,2025-07-29,SYSBP,112.0,mmHg
TEST-001-001,TEST-001-001-CN009160,4,W12,84,2025-03-31,SYSBP,101.0,mmHg
TEST-001-001,TEST-001-001-CN001161,4,W12,84,2025-05-18,SYSBP,115.0,mmHg
TEST-001-001,TEST-001-001-CN004163,4,W12,84,2025-04-02,SYSBP,116.0,mmHg
TEST-001-001,TEST-001-001-CN002164,4,W12,84,2025-08-11,SYSBP,100.0,mmHg
TEST-001-001,TEST-001-001-CN007165,4,W12,84,2025-04-30,SYSBP,134.0,mmHg
TEST-001-001,TEST-001-001-CN006166,4,W12,84,2025-06-29,SYSBP,127.0,mmHg
TEST-001-001,TEST-001-001-CN008167,4,W12,84,2025-06-13,SYSBP,108.0,mmHg
TEST-001-001,TEST-001-001-CN002168,4,W12,84,2025-04-13,SYSBP,117.0,mmHg
TEST-001-001,TEST-001-001-CN006169,4,W12,84,2025-05-09,SYSBP,134.0,mmHg
TEST-001-001,TEST-001-001-CN003170,4,W12,84,2025-06-29,SYSBP,119.0,mmHg
TEST-001-001,TEST-001-001-CN004171,4,W12,84,2025-05-28,SYSBP,97.0,mmHg
TEST-001-001,TEST-001-001-CN002172,3,W12,84,2025-03-28,SYSBP,115.0,mmHg
TEST-001-001,TEST-001-001-CN003173,4,W12,84,2025-08-08,SYSBP,127.0,mmHg
TEST-001-001,TEST-001-001-CN010174,4,W12,84,2025-07-11,SYSBP,132.0,mmHg
TEST-001-001,TEST-001-001-CN005175,4,W12,84,2025-08-09,SYSBP,93.0,mmHg
TEST-001-001,TEST-001-001-CN008176,4,W12,84,2025-04-29,SYSBP,93.0,mmHg
TEST-001-001,TEST-001-001-CN002177,4,W12,84,2025-08-13,SYSBP,143.0,mmHg
TEST-001-001,TEST-001-001-CN001178,4,W12,84,2025-07-08,SYSBP,127.0,mmHg
TEST-001-001,TEST-001-001-CN009179,4,W12,84,2025-08-27,SYSBP,129.0,mmHg
TEST-001-001,TEST-001-001-CN008180,4,W12,84,2025-05-13,SYSBP,110.0,mmHg
TEST-001-001,TEST-001-001-CN005181,4,W12,84,2025-07-29,SYSBP,131.0,mmHg
TEST-001-001,TEST-001-001-CN006182,4,W12,84,2025-03-31,SYSBP,112.0,mmHg
TEST-001-001,TEST-001-001-CN006183,4,W12,84,2025-06-20,SYSBP,107.0,mmHg
TEST-001-001,TEST-001-001-CN009184,4,W12,84,2025-04-26,SYSBP,133.0,mmHg
TEST-001-001,TEST-001-001-CN002185,4,W12,84,2025-06-18,SYSBP,142.0,mmHg
TEST-001-001,TEST-001-001-CN009186,4,W12,84,2025-09-01,SYSBP,130.0,mmHg
TEST-001-001,TEST-001-001-CN001187,3,W12,84,2025-07-14,SYSBP,124.0,mmHg
TEST-001-001,TEST-001-001-CN004188,4,W12,84,2025-06-06,SYSBP,123.0,mmHg
TEST-001-001,TEST-001-001-CN010189,4,W12,84,2025-05-25,SYSBP,123.0,mmHg
TEST-001-001,TEST-001-001-CN005190,4,W12,84,2025-06-24,SYSBP,142.0,mmHg
TEST-001-001,TEST-001-001-CN004192,4,W12,84,2025-05-07,SYSBP,127.0,mmHg
TEST-001-001,TEST-001-001-CN004193,4,W12,84,2025-05-30,SYSBP,136.0,mmHg
TEST-001-001,TEST-001-001-CN007194,3,W12,84,2025-05-07,SYSBP,122.0,mmHg
TEST-001-001,TEST-001-001-CN004195,3,W12,84,2025-08-24,SYSBP,126.0,mmHg
TEST-001-001,TEST-001-001-CN002196,4,W12,84,2025-06-21,SYSBP,130.0,mmHg
TEST-001-001,TEST-001-001-CN008198,4,W12,84,2025-05-20,SYSBP,127.0,mmHg
TEST-001-001,TEST-001-001-CN002199,4,W12,84,2025-04-29,SYSBP,132.0,mmHg
TEST-001-001,TEST-001-001-CN001001,5,W18,126,2025-05-30,SYSBP,121.0,mmHg
TEST-001-001,TEST-001-001-CN004002,5,W18,126,2025-06-13,SYSBP,120.0,mmHg
TEST-001-001,TEST-001-001-CN003003,5,W18,126,2025-08-07,SYSBP,109.0,mmHg
TEST-001-001,TEST-001-001-CN008004,5,W18,126,2025-10-10,SYSBP,124.0,mmHg
TEST-001-001,TEST-001-001-CN006005,4,W18,126,2025-08-02,SYSBP,133.0,mmHg
TEST-001-001,TEST-001-001-CN009006,4,W18,126,2025-05-20,SYSBP,135.0,mmHg
TEST-001-001,TEST-001-001-CN002007,5,W18,126,2025-10-02,SYSBP,124.0,mmHg
TEST-001-001,TEST-001-001-CN002008,5,W18,126,2025-06-01,SYSBP,126.0,mmHg
TEST-001-001,TEST-001-001-CN004009,5,W18,126,2025-10-03,SYSBP,121.0,mmHg
TEST-001-001,TEST-001-001-CN009010,5,W18,126,2025-08-01,SYSBP,119.0,mmHg
TEST-001-001,TEST-001-001-CN002011,5,W18,126,2025-09-06,SYSBP,113.0,mmHg
TEST-001-001,TEST-001-001-CN001012,5,W18,126,2025-06-24,SYSBP,119.0,mmHg
TEST-001-001,TEST-001-001-CN005013,5,W18,126,2025-09-27,SYSBP,133.0,mmHg
TEST-001-001,TEST-001-001-CN009015,5,W18,126,2025-09-02,SYSBP,103.0,mmHg
TEST-001-001,TEST-001-001-CN009016,5,W18,126,2025-06-27,SYSBP,112.0,mmHg
TEST-001-001,TEST-001-001-CN010017,5,W18,126,2025-07-23,SYSBP,119.0,mmHg
TEST-001-001,TEST-001-001-CN003018,5,W18,126,2025-07-08,SYSBP,115.0,mmHg
TEST-001-001,TEST-001-001-CN008019,5,W18,126,2025-09-04,SYSBP,,mmHg
TEST-001-001,TEST-001-001-CN010020,5,W18,126,2025-07-10,SYSBP,108.0,mmHg
TEST-001-001,TEST-001-001-CN010022,5,W18,126,2025-07-31,SYSBP,113.0,mmHg
TEST-001-001,TEST-001-001-CN010023,5,W18,126,2025-05-30,SYSBP,102.0,mmHg
TEST-001-001,TEST-001-001-CN005024,5,W18,126,2025-06-26,SYSBP,109.0,mmHg
TEST-001-001,TEST-001-001-CN009025,5,W18,126,2025-07-03,SYSBP,137.0,mmHg
TEST-001-001,TEST-001-001-CN004026,5,W18,126,2025-07-21,SYSBP,118.0,mmHg
TEST-001-001,TEST-001-001-CN006027,5,W18,126,2025-05-21,SYSBP,120.0,mmHg
TEST-001-001,TEST-001-001-CN005028,5,W18,126,2025-08-14,SYSBP,111.0,mmHg
TEST-001-001,TEST-001-001-CN010029,5,W18,126,2025-05-15,SYSBP,119.0,mmHg
TEST-001-001,TEST-001-001-CN007030,5,W18,126,2025-06-25,SYSBP,120.0,mmHg
TEST-001-001,TEST-001-001-CN002031,5,W18,126,2025-05-22,SYSBP,117.0,mmHg
TEST-001-001,TEST-001-001-CN002032,5,W18,126,2025-08-07,SYSBP,122.0,mmHg
TEST-001-001,TEST-001-001-CN004033,5,W18,126,2025-07-01,SYSBP,99.0,mmHg
TEST-001-001,TEST-001-001-CN005034,5,W18,126,2025-07-10,SYSBP,106.0,mmHg
TEST-001-001,TEST-001-001-CN005035,5,W18,126,2025-07-31,SYSBP,131.0,mmHg
TEST-001-001,TEST-001-001-CN005036,5,W18,126,2025-06-17,SYSBP,131.0,mmHg
TEST-001-001,TEST-001-001-CN007037,4,W18,126,2025-08-26,SYSBP,98.0,mmHg
TEST-001-001,TEST-001-001-CN009038,5,W18,126,2025-08-29,SYSBP,123.0,mmHg
TEST-001-001,TEST-001-001-CN002039,5,W18,126,2025-06-15,SYSBP,132.0,mmHg
TEST-001-001,TEST-001-001-CN003040,5,W18,126,2025-05-31,SYSBP,83.0,mmHg
TEST-001-001,TEST-001-001-CN008041,5,W18,126,2025-06-22,SYSBP,110.0,mmHg
TEST-001-001,TEST-001-001-CN004042,5,W18,126,2025-09-17,SYSBP,112.0,mmHg
TEST-001-001,TEST-001-001-CN006043,5,W18,126,2025-05-09,SYSBP,123.0,mmHg
TEST-001-001,TEST-001-001-CN003044,5,W18,126,2025-07-24,SYSBP,126.0,mmHg
TEST-001-001,TEST-001-001-CN006045,5,W18,126,2025-05-26,SYSBP,101.0,mmHg
TEST-001-001,TEST-001-001-CN005046,5,W18,126,2025-05-29,SYSBP,128.0,mmHg
TEST-001-001,TEST-001-001-CN006047,5,W18,126,2025-08-17,SYSBP,140.0,mmHg
TEST-001-001,TEST-001-001-CN006048,5,W18,126,2025-05-22,SYSBP,119.0,mmHg
TEST-001-001,TEST-001-001-CN001049,5,W18,126,2025-06-26,SYSBP,132.0,mmHg
TEST-001-001,TEST-001-001-CN005051,5,W18,126,2025-09-09,SYSBP,120.0,mmHg
TEST-001-001,TEST-001-001-CN005052,5,W18,126,2025-05-28,SYSBP,105.0,mmHg
TEST-001-001,TEST-001-001-CN006053,5,W18,126,2025-07-04,SYSBP,115.0,mmHg
TEST-001-001,TEST-001-001-CN002054,4,W18,126,2025-05-14,SYSBP,110.0,mmHg
TEST-001-001,TEST-001-001-CN006055,5,W18,126,2025-08-10,SYSBP,124.0,mmHg
TEST-001-001,TEST-001-001-CN008056,5,W18,126,2025-07-01,SYSBP,118.0,mmHg
TEST-001-001,TEST-001-001-CN004057,5,W18,126,2025-09-16,SYSBP,132.0,mmHg
TEST-001-001,TEST-001-001-CN007058,5,W18,126,2025-08-29,SYSBP,116.0,mmHg
TEST-001-001,TEST-001-001-CN009059,5,W18,126,2025-08-23,SYSBP,110.0,mmHg
TEST-001-001,TEST-001-001-CN009060,5,W18,126,2025-05-06,SYSBP,106.0,mmHg
TEST-001-001,TEST-001-001-CN006061,3,W18,126,2025-06-02,SYSBP,118.0,mmHg
TEST-001-001,TEST-001-001-CN002062,5,W18,126,2025-06-01,SYSBP,117.0,mmHg
TEST-001-001,TEST-001-001-CN009065,5,W18,126,2025-08-06,SYSBP,123.0,mmHg
TEST-001-001,TEST-001-001-CN010066,5,W18,126,2025-05-17,SYSBP,132.0,mmHg
TEST-001-001,TEST-001-001-CN002068,5,W18,126,2025-08-10,SYSBP,119.0,mmHg
TEST-001-001,TEST-001-001-CN003069,5,W18,126,2025-05-06,SYSBP,116.0,mmHg
TEST-001-001,TEST-001-001-CN003070,5,W18,126,2025-06-25,SYSBP,157.0,mmHg
TEST-001-001,TEST-001-001-CN005071,5,W18,126,2025-05-28,SYSBP,133.0,mmHg
TEST-001-001,TEST-001-001-CN006072,5,W18,126,2025-05-22,SYSBP,127.0,mmHg
TEST-001-001,TEST-001-001-CN001074,4,W18,126,2025-06-01,SYSBP,133.0,mmHg
TEST-001-001,TEST-001-001-CN003075,5,W18,126,2025-07-28,SYSBP,127.0,mmHg
TEST-001-001,TEST-001-001-CN003076,5,W18,126,2025-06-25,SYSBP,106.0,mmHg
TEST-001-001,TEST-001-001-CN008077,5,W18,126,2025-06-01,SYSBP,132.0,mmHg
TEST-001-001,TEST-001-001-CN005078,4,W18,126,2025-07-23,SYSBP,119.0,mmHg
TEST-001-001,TEST-001-001-CN005079,5,W18,126,2025-07-15,SYSBP,132.0,mmHg
TEST-001-001,TEST-001-001-CN003080,5,W18,126,2025-08-03,SYSBP,140.0,mmHg
TEST-001-001,TEST-001-001-CN001081,5,W18,126,2025-08-22,SYSBP,125.0,mmHg
TEST-001-001,TEST-001-001-CN003082,4,W18,126,2025-07-04,SYSBP,,mmHg
TEST-001-001,TEST-001-001-CN006084,5,W18,126,2025-05-30,SYSBP,101.0,mmHg
TEST-001-001,TEST-001-001-CN010085,5,W18,126,2025-06-02,SYSBP,129.0,mmHg
TEST-001-001,TEST-001-001-CN001087,5,W18,126,2025-09-12,SYSBP,114.0,mmHg
TEST-001-001,TEST-001-001-CN006088,5,W18,126,2025-09-05,SYSBP,128.0,mmHg
TEST-001-001,TEST-001-001-CN009089,5,W18,126,2025-06-06,SYSBP,105.0,mmHg
TEST-001-001,TEST-001-001-CN009090,5,W18,126,2025-08-24,SYSBP,105.0,mmHg
TEST-001-001,TEST-001-001-CN005091,5,W18,126,2025-09-17,SYSBP,106.0,mmHg
TEST-001-001,TEST-001-001-CN001092,5,W18,126,2025-07-24,SYSBP,127.0,mmHg
TEST-001-001,TEST-001-001-CN006093,5,W18,126,2025-06-25,SYSBP,136.0,mmHg
TEST-001-001,TEST-001-001-CN004094,5,W18,126,2025-08-06,SYSBP,117.0,mmHg
TEST-001-001,TEST-001-001-CN007095,4,W18,126,2025-05-10,SYSBP,130.0,mmHg
TEST-001-001,TEST-001-001-CN004096,5,W18,126,2025-07-23,SYSBP,114.0,mmHg
TEST-001-001,TEST-001-001-CN002097,5,W18,126,2025-05-30,SYSBP,124.0,mmHg
TEST-001-001,TEST-001-001-CN004098,5,W18,126,2025-10-06,SYSBP,103.0,mmHg
TEST-001-001,TEST-001-001-CN009099,4,W18,126,2025-06-23,SYSBP,129.0,mmHg
TEST-001-001,TEST-001-001-CN006100,5,W18,126,2025-10-07,SYSBP,120.0,mmHg
TEST-001-001,TEST-001-001-CN009101,5,W18,126,2025-08-15,SYSBP,111.0,mmHg
TEST-001-001,TEST-001-001-CN010102,5,W18,126,2025-09-20,SYSBP,109.0,mmHg
TEST-001-001,TEST-001-001-CN009104,5,W18,126,2025-06-06,SYSBP,106.0,mmHg
TEST-001-001,TEST-001-001-CN004105,5,W18,126,2025-08-04,SYSBP,137.0,mmHg
TEST-001-001,TEST-001-001-CN005107,5,W18,126,2025-09-04,SYSBP,126.0,mmHg
TEST-001-001,TEST-001-001-CN007108,5,W18,126,2025-10-11,SYSBP,121.0,mmHg
TEST-001-001,TEST-001-001-CN009110,5,W18,126,2025-08-14,SYSBP,138.0,mmHg
TEST-001-001,TEST-001-001-CN010111,5,W18,126,2025-07-16,SYSBP,116.0,mmHg
TEST-001-001,TEST-001-001-CN005112,5,W18,126,2025-07-02,SYSBP,139.0,mmHg
TEST-001-001,TEST-001-001-CN010113,5,W18,126,2025-07-07,SYSBP,139.0,mmHg
TEST-001-001,TEST-001-001-CN003115,5,W18,126,2025-09-21,SYSBP,118.0,mmHg
TEST-001-001,TEST-001-001-CN010116,5,W18,126,2025-05-22,SYSBP,123.0,mmHg
TEST-001-001,TEST-001-001-CN006117,5,W18,126,2025-10-01,SYSBP,113.0,mmHg
TEST-001-001,TEST-001-001-CN002118,5,W18,126,2025-08-23,SYSBP,119.0,mmHg
TEST-001-001,TEST-001-001-CN008120,5,W18,126,2025-06-17,SYSBP,119.0,mmHg
TEST-001-001,TEST-001-001-CN007121,5,W18,126,2025-08-23,SYSBP,123.0,mmHg
TEST-001-001,TEST-001-001-CN009122,5,W18,126,2025-06-21,SYSBP,142.0,mmHg
TEST-001-001,TEST-001-001-CN004123,5,W18,126,2025-05-20,SYSBP,136.0,mmHg
TEST-001-001,TEST-001-001-CN005124,5,W18,126,2025-05-24,SYSBP,122.0,mmHg
TEST-001-001,TEST-001-001-CN009125,5,W18,126,2025-06-11,SYSBP,121.0,mmHg
TEST-001-001,TEST-001-001-CN005126,5,W18,126,2025-06-29,SYSBP,126.0,mmHg
TEST-001-001,TEST-001-001-CN001127,5,W18,126,2025-08-11,SYSBP,129.0,mmHg
TEST-001-001,TEST-001-001-CN007129,5,W18,126,2025-08-01,SYSBP,118.0,mmHg
TEST-001-001,TEST-001-001-CN010130,5,W18,126,2025-06-16,SYSBP,107.0,mmHg
TEST-001-001,TEST-001-001-CN003131,5,W18,126,2025-05-21,SYSBP,124.0,mmHg
TEST-001-001,TEST-001-001-CN001133,5,W18,126,2025-08-25,SYSBP,106.0,mmHg
TEST-001-001,TEST-001-001-CN006134,5,W18,126,2025-09-07,SYSBP,110.0,mmHg
TEST-001-001,TEST-001-001-CN005136,5,W18,126,2025-06-23,SYSBP,112.0,mmHg
TEST-001-001,TEST-001-001-CN002137,5,W18,126,2025-05-09,SYSBP,102.0,mmHg
TEST-001-001,TEST-001-001-CN003138,4,W18,126,2025-07-16,SYSBP,108.0,mmHg
TEST-001-001,TEST-001-001-CN008139,5,W18,126,2025-06-19,SYSBP,114.0,mmHg
TEST-001-001,TEST-001-001-CN006140,5,W18,126,2025-05-15,SYSBP,124.0,mmHg
TEST-001-001,TEST-001-001-CN006142,5,W18,126,2025-09-14,SYSBP,107.0,mmHg
TEST-001-001,TEST-001-001-CN004143,5,W18,126,2025-10-05,SYSBP,118.0,mmHg
TEST-001-001,TEST-001-001-CN006144,5,W18,126,2025-06-02,SYSBP,134.0,mmHg
TEST-001-001,TEST-001-001-CN009145,5,W18,126,2025-08-05,SYSBP,123.0,mmHg
TEST-001-001,TEST-001-001-CN009146,5,W18,126,2025-10-01,SYSBP,113.0,mmHg
TEST-001-001,TEST-001-001-CN003147,5,W18,126,2025-08-12,SYSBP,112.0,mmHg
TEST-001-001,TEST-001-001-CN009148,4,W18,126,2025-08-29,SYSBP,98.0,mmHg
TEST-001-001,TEST-001-001-CN004149,5,W18,126,2025-06-07,SYSBP,105.0,mmHg
TEST-001-001,TEST-001-001-CN008150,5,W18,126,2025-06-09,SYSBP,101.0,mmHg
TEST-001-001,TEST-001-001-CN010151,5,W18,126,2025-08-23,SYSBP,125.0,mmHg
TEST-001-001,TEST-001-001-CN004152,5,W18,126,2025-09-20,SYSBP,113.0,mmHg
TEST-001-001,TEST-001-001-CN007153,4,W18,126,2025-06-09,SYSBP,117.0,mmHg
TEST-001-001,TEST-001-001-CN002154,4,W18,126,2025-07-15,SYSBP,131.0,mmHg
TEST-001-001,TEST-001-001-CN008155,5,W18,126,2025-07-18,SYSBP,126.0,mmHg
TEST-001-001,TEST-001-001-CN003156,5,W18,126,2025-06-20,SYSBP,116.0,mmHg
TEST-001-001,TEST-001-001-CN002157,5,W18,126,2025-06-30,SYSBP,128.0,mmHg
TEST-001-001,TEST-001-001-CN005158,5,W18,126,2025-05-24,SYSBP,119.0,mmHg
TEST-001-001,TEST-001-001-CN005159,5,W18,126,2025-09-09,SYSBP,134.0,mmHg
TEST-001-001,TEST-001-001-CN009160,5,W18,126,2025-05-11,SYSBP,129.0,mmHg
TEST-001-001,TEST-001-001-CN001161,5,W18,126,2025-06-26,SYSBP,103.0,mmHg
TEST-001-001,TEST-001-001-CN004163,5,W18,126,2025-05-16,SYSBP,109.0,mmHg
TEST-001-001,TEST-001-001-CN002164,5,W18,126,2025-09-22,SYSBP,123.0,mmHg
TEST-001-001,TEST-001-001-CN007165,5,W18,126,2025-06-11,SYSBP,123.0,mmHg
TEST-001-001,TEST-001-001-CN006166,5,W18,126,2025-08-10,SYSBP,106.0,mmHg
TEST-001-001,TEST-001-001-CN008167,5,W18,126,2025-07-25,SYSBP,114.0,mmHg
TEST-001-001,TEST-001-001-CN006169,5,W18,126,2025-06-26,SYSBP,118.0,mmHg
TEST-001-001,TEST-001-001-CN003170,5,W18,126,2025-08-08,SYSBP,121.0,mmHg
TEST-001-001,TEST-001-001-CN004171,5,W18,126,2025-07-14,SYSBP,120.0,mmHg
TEST-001-001,TEST-001-001-CN002172,4,W18,126,2025-05-11,SYSBP,95.0,mmHg
TEST-001-001,TEST-001-001-CN003173,5,W18,126,2025-09-21,SYSBP,113.0,mmHg
TEST-001-001,TEST-001-001-CN010174,5,W18,126,2025-08-22,SYSBP,127.0,mmHg
TEST-001-001,TEST-001-001-CN005175,5,W18,126,2025-09-24,SYSBP,105.0,mmHg
TEST-001-001,TEST-001-001-CN008176,5,W18,126,2025-06-10,SYSBP,119.0,mmHg
TEST-001-001,TEST-001-001-CN002177,5,W18,126,2025-09-24,SYSBP,107.0,mmHg
TEST-001-001,TEST-001-001-CN001178,5,W18,126,2025-08-19,SYSBP,120.0,mmHg
TEST-001-001,TEST-001-001-CN008180,5,W18,126,2025-06-27,SYSBP,104.0,mmHg
TEST-001-001,TEST-001-001-CN005181,5,W18,126,2025-09-12,SYSBP,118.0,mmHg
TEST-001-001,TEST-001-001-CN006182,5,W18,126,2025-05-17,SYSBP,129.0,mmHg
TEST-001-001,TEST-001-001-CN006183,5,W18,126,2025-07-30,SYSBP,140.0,mmHg
TEST-001-001,TEST-001-001-CN009184,5,W18,126,2025-06-04,SYSBP,149.0,mmHg
TEST-001-001,TEST-001-001-CN002185,5,W18,126,2025-08-02,SYSBP,119.0,mmHg
TEST-001-001,TEST-001-001-CN009186,5,W18,126,2025-10-11,SYSBP,122.0,mmHg
TEST-001-001,TEST-001-001-CN001187,4,W18,126,2025-08-26,SYSBP,120.0,mmHg
TEST-001-001,TEST-001-001-CN004188,5,W18,126,2025-07-20,SYSBP,120.0,mmHg
TEST-001-001,TEST-001-001-CN010189,5,W18,126,2025-07-09,SYSBP,111.0,mmHg
TEST-001-001,TEST-001-001-CN005190,5,W18,126,2025-08-07,SYSBP,112.0,mmHg
TEST-001-001,TEST-001-001-CN005191,4,W18,126,2025-08-13,SYSBP,130.0,mmHg
TEST-001-001,TEST-001-001-CN004192,5,W18,126,2025-06-17,SYSBP,114.0,mmHg
TEST-001-001,TEST-001-001-CN004193,5,W18,126,2025-07-12,SYSBP,143.0,mmHg
TEST-001-001,TEST-001-001-CN007194,4,W18,126,2025-06-19,SYSBP,121.0,mmHg
TEST-001-001,TEST-001-001-CN004195,4,W18,126,2025-10-08,SYSBP,131.0,mmHg
TEST-001-001,TEST-001-001-CN008198,5,W18,126,2025-07-05,SYSBP,115.0,mmHg
TEST-001-001,TEST-001-001-CN002199,5,W18,126,2025-06-08,SYSBP,131.0,mmHg
TEST-001-001,TEST-001-001-CN001001,6,W24,168,2025-07-08,SYSBP,121.0,mmHg
TEST-001-001,TEST-001-001-CN004002,6,W24,168,2025-07-24,SYSBP,102.0,mmHg
TEST-001-001,TEST-001-001-CN003003,6,W24,168,2025-09-20,SYSBP,126.0,mmHg
TEST-001-001,TEST-001-001-CN008004,6,W24,168,2025-11-25,SYSBP,100.0,mmHg
TEST-001-001,TEST-001-001-CN006005,5,W24,168,2025-09-12,SYSBP,119.0,mmHg
TEST-001-001,TEST-001-001-CN009006,5,W24,168,2025-07-01,SYSBP,122.0,mmHg
TEST-001-001,TEST-001-001-CN002007,6,W24,168,2025-11-10,SYSBP,132.0,mmHg
TEST-001-001,TEST-001-001-CN002008,6,W24,168,2025-07-14,SYSBP,125.0,mmHg
TEST-001-001,TEST-001-001-CN004009,6,W24,168,2025-11-13,SYSBP,135.0,mmHg
TEST-001-001,TEST-001-001-CN009010,6,W24,168,2025-09-10,SYSBP,113.0,mmHg
TEST-001-001,TEST-001-001-CN002011,6,W24,168,2025-10-18,SYSBP,104.0,mmHg
TEST-001-001,TEST-001-001-CN001012,6,W24,168,2025-07-31,SYSBP,101.0,mmHg
TEST-001-001,TEST-001-001-CN005013,6,W24,168,2025-11-12,SYSBP,120.0,mmHg
TEST-001-001,TEST-001-001-CN009016,6,W24,168,2025-08-08,SYSBP,135.0,mmHg
TEST-001-001,TEST-001-001-CN010017,6,W24,168,2025-09-02,SYSBP,106.0,mmHg
TEST-001-001,TEST-001-001-CN003018,6,W24,168,2025-08-20,SYSBP,125.0,mmHg
TEST-001-001,TEST-001-001-CN010020,6,W24,168,2025-08-17,SYSBP,110.0,mmHg
TEST-001-001,TEST-001-001-CN010023,6,W24,168,2025-07-09,SYSBP,129.0,mmHg
TEST-001-001,TEST-001-001-CN005024,6,W24,168,2025-08-04,SYSBP,104.0,mmHg
TEST-001-001,TEST-001-001-CN009025,6,W24,168,2025-08-14,SYSBP,130.0,mmHg
TEST-001-001,TEST-001-001-CN004026,6,W24,168,2025-08-31,SYSBP,103.0,mmHg
TEST-001-001,TEST-001-001-CN006027,6,W24,168,2025-07-01,SYSBP,129.0,mmHg
TEST-001-001,TEST-001-001-CN010029,6,W24,168,2025-06-23,SYSBP,135.0,mmHg
TEST-001-001,TEST-001-001-CN007030,6,W24,168,2025-08-09,SYSBP,105.0,mmHg
TEST-001-001,TEST-001-001-CN002031,6,W24,168,2025-07-09,SYSBP,129.0,mmHg
TEST-001-001,TEST-001-001-CN002032,6,W24,168,2025-09-17,SYSBP,116.0,mmHg
TEST-001-001,TEST-001-001-CN004033,6,W24,168,2025-08-11,SYSBP,119.0,mmHg
TEST-001-001,TEST-001-001-CN005034,6,W24,168,2025-08-20,SYSBP,120.0,mmHg
TEST-001-001,TEST-001-001-CN005035,6,W24,168,2025-09-09,SYSBP,125.0,mmHg
TEST-001-001,TEST-001-001-CN005036,6,W24,168,2025-07-29,SYSBP,136.0,mmHg
TEST-001-001,TEST-001-001-CN007037,5,W24,168,2025-10-08,SYSBP,124.0,mmHg
TEST-001-001,TEST-001-001-CN009038,6,W24,168,2025-10-11,SYSBP,114.0,mmHg
TEST-001-001,TEST-001-001-CN002039,6,W24,168,2025-07-26,SYSBP,105.0,mmHg
TEST-001-001,TEST-001-001-CN003040,6,W24,168,2025-07-09,SYSBP,145.0,mmHg
TEST-001-001,TEST-001-001-CN008041,6,W24,168,2025-08-04,SYSBP,133.0,mmHg
TEST-001-001,TEST-001-001-CN004042,6,W24,168,2025-10-26,SYSBP,115.0,mmHg
TEST-001-001,TEST-001-001-CN006043,6,W24,168,2025-06-18,SYSBP,123.0,mmHg
TEST-001-001,TEST-001-001-CN003044,6,W24,168,2025-09-09,SYSBP,116.0,mmHg
TEST-001-001,TEST-001-001-CN006045,6,W24,168,2025-07-03,SYSBP,104.0,mmHg
TEST-001-001,TEST-001-001-CN005046,6,W24,168,2025-07-10,SYSBP,117.0,mmHg
TEST-001-001,TEST-001-001-CN006047,6,W24,168,2025-09-29,SYSBP,131.0,mmHg
TEST-001-001,TEST-001-001-CN006048,6,W24,168,2025-07-05,SYSBP,136.0,mmHg
TEST-001-001,TEST-001-001-CN001049,6,W24,168,2025-08-07,SYSBP,138.0,mmHg
TEST-001-001,TEST-001-001-CN005051,6,W24,168,2025-10-24,SYSBP,113.0,mmHg
TEST-001-001,TEST-001-001-CN006053,6,W24,168,2025-08-18,SYSBP,110.0,mmHg
TEST-001-001,TEST-001-001-CN002054,5,W24,168,2025-06-25,SYSBP,115.0,mmHg
TEST-001-001,TEST-001-001-CN006055,6,W24,168,2025-09-20,SYSBP,125.0,mmHg
TEST-001-001,TEST-001-001-CN008056,6,W24,168,2025-08-10,SYSBP,103.0,mmHg
TEST-001-001,TEST-001-001-CN004057,6,W24,168,2025-10-28,SYSBP,120.0,mmHg
TEST-001-001,TEST-001-001-CN007058,6,W24,168,2025-10-07,SYSBP,96.0,mmHg
TEST-001-001,TEST-001-001-CN009059,6,W24,168,2025-10-09,SYSBP,116.0,mmHg
TEST-001-001,TEST-001-001-CN009060,6,W24,168,2025-06-19,SYSBP,122.0,mmHg
TEST-001-001,TEST-001-001-CN006061,4,W24,168,2025-07-18,SYSBP,145.0,mmHg
TEST-001-001,TEST-001-001-CN002062,6,W24,168,2025-07-17,SYSBP,121.0,mmHg
TEST-001-001,TEST-001-001-CN009064,5,W24,168,2025-08-23,SYSBP,110.0,mmHg
TEST-001-001,TEST-001-001-CN009065,6,W24,168,2025-09-16,SYSBP,134.0,mmHg
TEST-001-001,TEST-001-001-CN010066,6,W24,168,2025-06-27,SYSBP,119.0,mmHg
TEST-001-001,TEST-001-001-CN002068,6,W24,168,2025-09-20,SYSBP,112.0,mmHg
TEST-001-001,TEST-001-001-CN003069,6,W24,168,2025-06-17,SYSBP,107.0,mmHg
TEST-001-001,TEST-001-001-CN003070,6,W24,168,2025-08-09,SYSBP,137.0,mmHg
TEST-001-001,TEST-001-001-CN006072,6,W24,168,2025-07-05,SYSBP,123.0,mmHg
TEST-001-001,TEST-001-001-CN001074,5,W24,168,2025-07-12,SYSBP,136.0,mmHg
TEST-001-001,TEST-001-001-CN003075,6,W24,168,2025-09-03,SYSBP,120.0,mmHg
TEST-001-001,TEST-001-001-CN003076,6,W24,168,2025-08-05,SYSBP,138.0,mmHg
TEST-001-001,TEST-001-001-CN008077,6,W24,168,2025-07-13,SYSBP,122.0,mmHg
TEST-001-001,TEST-001-001-CN005078,5,W24,168,2025-09-02,SYSBP,137.0,mmHg
TEST-001-001,TEST-001-001-CN005079,6,W24,168,2025-08-22,SYSBP,127.0,mmHg
TEST-001-001,TEST-001-001-CN003080,6,W24,168,2025-09-18,SYSBP,108.0,mmHg
TEST-001-001,TEST-001-001-CN001081,6,W24,168,2025-10-02,SYSBP,99.0,mmHg
TEST-001-001,TEST-001-001-CN003082,5,W24,168,2025-08-14,SYSBP,115.0,mmHg
TEST-001-001,TEST-001-001-CN006084,6,W24,168,2025-07-07,SYSBP,131.0,mmHg
TEST-001-001,TEST-001-001-CN010085,6,W24,168,2025-07-15,SYSBP,116.0,mmHg
TEST-001-001,TEST-001-001-CN001087,6,W24,168,2025-10-19,SYSBP,107.0,mmHg
TEST-001-001,TEST-001-001-CN006088,6,W24,168,2025-10-19,SYSBP,110.0,mmHg
TEST-001-001,TEST-001-001-CN009089,6,W24,168,2025-07-18,SYSBP,123.0,mmHg
TEST-001-001,TEST-001-001-CN009090,6,W24,168,2025-10-06,SYSBP,101.0,mmHg
TEST-001-001,TEST-001-001-CN005091,6,W24,168,2025-10-25,SYSBP,120.0,mmHg
TEST-001-001,TEST-001-001-CN001092,6,W24,168,2025-09-04,SYSBP,103.0,mmHg
TEST-001-001,TEST-001-001-CN006093,6,W24,168,2025-08-03,SYSBP,136.0,mmHg
TEST-001-001,TEST-001-001-CN004094,6,W24,168,2025-09-15,SYSBP,129.0,mmHg
TEST-001-001,TEST-001-001-CN004096,6,W24,168,2025-09-01,SYSBP,113.0,mmHg
TEST-001-001,TEST-001-001-CN002097,6,W24,168,2025-07-06,SYSBP,132.0,mmHg
TEST-001-001,TEST-001-001-CN004098,6,W24,168,2025-11-22,SYSBP,120.0,mmHg
TEST-001-001,TEST-001-001-CN009099,5,W24,168,2025-08-05,SYSBP,108.0,mmHg
TEST-001-001,TEST-001-001-CN006100,6,W24,168,2025-11-14,SYSBP,116.0,mmHg
TEST-001-001,TEST-001-001-CN009101,6,W24,168,2025-09-25,SYSBP,133.0,mmHg
TEST-001-001,TEST-001-001-CN010102,6,W24,168,2025-11-06,SYSBP,142.0,mmHg
TEST-001-001,TEST-001-001-CN004105,6,W24,168,2025-09-16,SYSBP,140.0,mmHg
TEST-001-001,TEST-001-001-CN010106,5,W24,168,2025-06-23,SYSBP,140.0,mmHg
TEST-001-001,TEST-001-001-CN005107,6,W24,168,2025-10-15,SYSBP,119.0,mmHg
TEST-001-001,TEST-001-001-CN007108,6,W24,168,2025-11-23,SYSBP,113.0,mmHg
TEST-001-001,TEST-001-001-CN009110,6,W24,168,2025-09-27,SYSBP,112.0,mmHg
TEST-001-001,TEST-001-001-CN010111,6,W24,168,2025-08-26,SYSBP,89.0,mmHg
TEST-001-001,TEST-001-001-CN005112,6,W24,168,2025-08-11,SYSBP,132.0,mmHg
TEST-001-001,TEST-001-001-CN010113,6,W24,168,2025-08-14,SYSBP,129.0,mmHg
TEST-001-001,TEST-001-001-CN003115,6,W24,168,2025-11-03,SYSBP,126.0,mmHg
TEST-001-001,TEST-001-001-CN010116,6,W24,168,2025-06-28,SYSBP,124.0,mmHg
TEST-001-001,TEST-001-001-CN006117,6,W24,168,2025-11-14,SYSBP,120.0,mmHg
TEST-001-001,TEST-001-001-CN002118,6,W24,168,2025-10-02,SYSBP,114.0,mmHg
TEST-001-001,TEST-001-001-CN008120,6,W24,168,2025-07-28,SYSBP,105.0,mmHg
TEST-001-001,TEST-001-001-CN007121,6,W24,168,2025-10-07,SYSBP,109.0,mmHg
TEST-001-001,TEST-001-001-CN004123,6,W24,168,2025-07-07,SYSBP,122.0,mmHg
TEST-001-001,TEST-001-001-CN005124,6,W24,168,2025-07-02,SYSBP,109.0,mmHg
TEST-001-001,TEST-001-001-CN009125,6,W24,168,2025-07-24,SYSBP,127.0,mmHg
TEST-001-001,TEST-001-001-CN005126,6,W24,168,2025-08-05,SYSBP,134.0,mmHg
TEST-001-001,TEST-001-001-CN001127,6,W24,168,2025-09-21,SYSBP,120.0,mmHg
TEST-001-001,TEST-001-001-CN007129,6,W24,168,2025-09-14,SYSBP,129.0,mmHg
TEST-001-001,TEST-001-001-CN010130,6,W24,168,2025-07-29,SYSBP,103.0,mmHg
TEST-001-001,TEST-001-001-CN003131,6,W24,168,2025-07-01,SYSBP,126.0,mmHg
TEST-001-001,TEST-001-001-CN001133,6,W24,168,2025-10-06,SYSBP,115.0,mmHg
TEST-001-001,TEST-001-001-CN006134,6,W24,168,2025-10-20,SYSBP,123.0,mmHg
TEST-001-001,TEST-001-001-CN005136,6,W24,168,2025-08-03,SYSBP,132.0,mmHg
TEST-001-001,TEST-001-001-CN002137,6,W24,168,2025-06-20,SYSBP,111.0,mmHg
TEST-001-001,TEST-001-001-CN003138,5,W24,168,2025-08-27,SYSBP,120.0,mmHg
TEST-001-001,TEST-001-001-CN008139,6,W24,168,2025-07-31,SYSBP,107.0,mmHg
TEST-001-001,TEST-001-001-CN006140,6,W24,168,2025-06-25,SYSBP,129.0,mmHg
TEST-001-001,TEST-001-001-CN003141,5,W24,168,2025-11-07,SYSBP,119.0,mmHg
TEST-001-001,TEST-001-001-CN006142,6,W24,168,2025-10-27,SYSBP,119.0,mmHg
TEST-001-001,TEST-001-001-CN006144,6,W24,168,2025-07-16,SYSBP,119.0,mmHg
TEST-001-001,TEST-001-001-CN009145,6,W24,168,2025-09-16,SYSBP,149.0,mmHg
TEST-001-001,TEST-001-001-CN009146,6,W24,168,2025-11-13,SYSBP,124.0,mmHg
TEST-001-001,TEST-001-001-CN009148,5,W24,168,2025-10-10,SYSBP,104.0,mmHg
TEST-001-001,TEST-001-001-CN004149,6,W24,168,2025-07-18,SYSBP,133.0,mmHg
TEST-001-001,TEST-001-001-CN008150,6,W24,168,2025-07-22,SYSBP,109.0,mmHg
TEST-001-001,TEST-001-001-CN010151,6,W24,168,2025-10-05,SYSBP,128.0,mmHg
TEST-001-001,TEST-001-001-CN004152,6,W24,168,2025-10-30,SYSBP,112.0,mmHg
TEST-001-001,TEST-001-001-CN007153,5,W24,168,2025-07-24,SYSBP,125.0,mmHg
TEST-001-001,TEST-001-001-CN002154,5,W24,168,2025-08-26,SYSBP,129.0,mmHg
TEST-001-001,TEST-001-001-CN008155,6,W24,168,2025-08-25,SYSBP,112.0,mmHg
TEST-001-001,TEST-001-001-CN003156,6,W24,168,2025-07-30,SYSBP,139.0,mmHg
TEST-001-001,TEST-001-001-CN002157,6,W24,168,2025-08-14,SYSBP,,mmHg
TEST-001-001,TEST-001-001-CN005158,6,W24,168,2025-07-05,SYSBP,102.0,mmHg
TEST-001-001,TEST-001-001-CN005159,6,W24,168,2025-10-17,SYSBP,99.0,mmHg
TEST-001-001,TEST-001-001-CN009160,6,W24,168,2025-06-27,SYSBP,121.0,mmHg
TEST-001-001,TEST-001-001-CN001161,6,W24,168,2025-08-11,SYSBP,128.0,mmHg
TEST-001-001,TEST-001-001-CN004163,6,W24,168,2025-06-22,SYSBP,119.0,mmHg
TEST-001-001,TEST-001-001-CN002164,6,W24,168,2025-11-01,SYSBP,,mmHg
TEST-001-001,TEST-001-001-CN007165,6,W24,168,2025-07-26,SYSBP,127.0,mmHg
TEST-001-001,TEST-001-001-CN006166,6,W24,168,2025-09-25,SYSBP,111.0,mmHg
TEST-001-001,TEST-001-001-CN008167,6,W24,168,2025-09-05,SYSBP,103.0,mmHg
TEST-001-001,TEST-001-001-CN002168,5,W24,168,2025-07-05,SYSBP,115.0,mmHg
TEST-001-001,TEST-001-001-CN006169,6,W24,168,2025-08-01,SYSBP,118.0,mmHg
TEST-001-001,TEST-001-001-CN003170,6,W24,168,2025-09-19,SYSBP,111.0,mmHg
TEST-001-001,TEST-001-001-CN004171,6,W24,168,2025-08-20,SYSBP,130.0,mmHg
TEST-001-001,TEST-001-001-CN002172,5,W24,168,2025-06-17,SYSBP,132.0,mmHg
TEST-001-001,TEST-001-001-CN003173,6,W24,168,2025-10-30,SYSBP,115.0,mmHg
TEST-001-001,TEST-001-001-CN010174,6,W24,168,2025-10-06,SYSBP,117.0,mmHg
TEST-001-001,TEST-001-001-CN005175,6,W24,168,2025-11-07,SYSBP,125.0,mmHg
TEST-001-001,TEST-001-001-CN008176,6,W24,168,2025-07-17,SYSBP,118.0,mmHg
TEST-001-001,TEST-001-001-CN002177,6,W24,168,2025-11-11,SYSBP,117.0,mmHg
TEST-001-001,TEST-001-001-CN001178,6,W24,168,2025-09-26,SYSBP,,mmHg
TEST-001-001,TEST-001-001-CN009179,5,W24,168,2025-11-22,SYSBP,118.0,mmHg
TEST-001-001,TEST-001-001-CN008180,6,W24,168,2025-08-09,SYSBP,122.0,mmHg
TEST-001-001,TEST-001-001-CN005181,6,W24,168,2025-10-21,SYSBP,111.0,mmHg
TEST-001-001,TEST-001-001-CN006183,6,W24,168,2025-09-12,SYSBP,111.0,mmHg
TEST-001-001,TEST-001-001-CN009184,6,W24,168,2025-07-18,SYSBP,124.0,mmHg
TEST-001-001,TEST-001-001-CN002185,6,W24,168,2025-09-13,SYSBP,119.0,mmHg
TEST-001-001,TEST-001-001-CN009186,6,W24,168,2025-11-23,SYSBP,102.0,mmHg
TEST-001-001,TEST-001-001-CN001187,5,W24,168,2025-10-05,SYSBP,122.0,mmHg
TEST-001-001,TEST-001-001-CN004188,6,W24,168,2025-09-01,SYSBP,117.0,mmHg
TEST-001-001,TEST-001-001-CN010189,6,W24,168,2025-08-20,SYSBP,134.0,mmHg
TEST-001-001,TEST-001-001-CN005190,6,W24,168,2025-09-18,SYSBP,96.0,mmHg
TEST-001-001,TEST-001-001-CN005191,5,W24,168,2025-09-20,SYSBP,134.0,mmHg
TEST-001-001,TEST-001-001-CN004192,6,W24,168,2025-08-02,SYSBP,132.0,mmHg
TEST-001-001,TEST-001-001-CN004193,6,W24,168,2025-08-17,SYSBP,120.0,mmHg
TEST-001-001,TEST-001-001-CN007194,5,W24,168,2025-07-31,SYSBP,121.0,mmHg
TEST-001-001,TEST-001-001-CN004195,5,W24,168,2025-11-17,SYSBP,123.0,mmHg
TEST-001-001,TEST-001-001-CN002196,5,W24,168,2025-09-14,SYSBP,132.0,mmHg
TEST-001-001,TEST-001-001-CN008198,6,W24,168,2025-08-16,SYSBP,137.0,mmHg
TEST-001-001,TEST-001-001-CN002199,6,W24,168,2025-07-21,SYSBP,121.0,mmHg
TEST-001-001,TEST-001-001-CN001001,7,SCR,-14,2025-01-09,WEIGHT,59.1,kg
TEST-001-001,TEST-001-001-CN004002,7,SCR,-14,2025-01-24,WEIGHT,74.0,kg
TEST-001-001,TEST-001-001-CN003003,7,SCR,-14,2025-03-17,WEIGHT,85.5,kg
TEST-001-001,TEST-001-001-CN008004,7,SCR,-14,2025-05-25,WEIGHT,64.6,kg
TEST-001-001,TEST-001-001-CN006005,6,SCR,-14,2025-03-15,WEIGHT,85.6,kg
TEST-001-001,TEST-001-001-CN002007,7,SCR,-14,2025-05-12,WEIGHT,59.9,kg
TEST-001-001,TEST-001-001-CN002008,7,SCR,-14,2025-01-13,WEIGHT,81.0,kg
TEST-001-001,TEST-001-001-CN004009,7,SCR,-14,2025-05-13,WEIGHT,57.2,kg
TEST-001-001,TEST-001-001-CN009010,7,SCR,-14,2025-03-09,WEIGHT,65.0,kg
TEST-001-001,TEST-001-001-CN002011,7,SCR,-14,2025-04-14,WEIGHT,60.1,kg
TEST-001-001,TEST-001-001-CN001012,7,SCR,-14,2025-02-01,WEIGHT,64.4,kg
TEST-001-001,TEST-001-001-CN005013,7,SCR,-14,2025-05-10,WEIGHT,78.0,kg
TEST-001-001,TEST-001-001-CN004014,3,SCR,-14,2025-05-27,WEIGHT,67.1,kg
TEST-001-001,TEST-001-001-CN009015,6,SCR,-14,2025-04-09,WEIGHT,57.5,kg
TEST-001-001,TEST-001-001-CN009016,7,SCR,-14,2025-02-05,WEIGHT,90.3,kg
TEST-001-001,TEST-001-001-CN010017,7,SCR,-14,2025-03-07,WEIGHT,66.3,kg
TEST-001-001,TEST-001-001-CN003018,7,SCR,-14,2025-02-17,WEIGHT,55.8,kg
TEST-001-001,TEST-001-001-CN008019,6,SCR,-14,2025-04-21,WEIGHT,93.1,kg
TEST-001-001,TEST-001-001-CN010020,7,SCR,-14,2025-02-18,WEIGHT,48.7,kg
TEST-001-001,TEST-001-001-CN010021,4,SCR,-14,2025-05-24,WEIGHT,50.9,kg
TEST-001-001,TEST-001-001-CN010022,6,SCR,-14,2025-03-14,WEIGHT,72.2,kg
TEST-001-001,TEST-001-001-CN010023,7,SCR,-14,2025-01-11,WEIGHT,79.2,kg
TEST-001-001,TEST-001-001-CN005024,7,SCR,-14,2025-02-04,WEIGHT,52.3,kg
TEST-001-001,TEST-001-001-CN009025,7,SCR,-14,2025-02-14,WEIGHT,67.9,kg
TEST-001-001,TEST-001-001-CN004026,7,SCR,-14,2025-03-03,WEIGHT,67.1,kg
TEST-001-001,TEST-001-001-CN006027,7,SCR,-14,2025-01-03,WEIGHT,74.1,kg
TEST-001-001,TEST-001-001-CN005028,6,SCR,-14,2025-03-25,WEIGHT,65.3,kg
TEST-001-001,TEST-001-001-CN010029,7,SCR,-14,2024-12-24,WEIGHT,76.0,kg
TEST-001-001,TEST-001-001-CN007030,7,SCR,-14,2025-02-07,WEIGHT,49.8,kg
TEST-001-001,TEST-001-001-CN002031,7,SCR,-14,2025-01-02,WEIGHT,63.9,kg
TEST-001-001,TEST-001-001-CN002032,7,SCR,-14,2025-03-21,WEIGHT,78.7,kg
TEST-001-001,TEST-001-001-CN004033,7,SCR,-14,2025-02-13,WEIGHT,52.6,kg
TEST-001-001,TEST-001-001-CN005034,7,SCR,-14,2025-02-19,WEIGHT,83.7,kg
TEST-001-001,TEST-001-001-CN005035,7,SCR,-14,2025-03-14,WEIGHT,78.2,kg
TEST-001-001,TEST-001-001-CN005036,7,SCR,-14,2025-01-27,WEIGHT,86.0,kg
TEST-001-001,TEST-001-001-CN007037,6,SCR,-14,2025-04-07,WEIGHT,48.1,kg
TEST-001-001,TEST-001-001-CN009038,7,SCR,-14,2025-04-14,WEIGHT,56.0,kg
TEST-001-001,TEST-001-001-CN002039,7,SCR,-14,2025-01-28,WEIGHT,63.1,kg
TEST-001-001,TEST-001-001-CN003040,7,SCR,-14,2025-01-11,WEIGHT,68.1,kg
TEST-001-001,TEST-001-001-CN008041,7,SCR,-14,2025-02-01,WEIGHT,51.3,kg
TEST-001-001,TEST-001-001-CN004042,7,SCR,-14,2025-04-27,WEIGHT,51.3,kg
TEST-001-001,TEST-001-001-CN006043,7,SCR,-14,2024-12-19,WEIGHT,61.9,kg
TEST-001-001,TEST-001-001-CN003044,7,SCR,-14,2025-03-10,WEIGHT,69.8,kg
TEST-001-001,TEST-001-001-CN006045,7,SCR,-14,2025-01-06,WEIGHT,66.8,kg
TEST-001-001,TEST-001-001-CN005046,7,SCR,-14,2025-01-10,WEIGHT,77.8,kg
TEST-001-001,TEST-001-001-CN006047,7,SCR,-14,2025-04-05,WEIGHT,81.2,kg
TEST-001-001,TEST-001-001-CN006048,7,SCR,-14,2025-01-07,WEIGHT,70.8,kg
TEST-001-001,TEST-001-001-CN001049,7,SCR,-14,2025-02-06,WEIGHT,69.2,kg
TEST-001-001,TEST-001-001-CN004050,5,SCR,-14,2024-12-23,WEIGHT,91.8,kg
TEST-001-001,TEST-001-001-CN005051,7,SCR,-14,2025-04-25,WEIGHT,60.9,kg
TEST-001-001,TEST-001-001-CN005052,6,SCR,-14,2025-01-09,WEIGHT,61.9,kg
TEST-001-001,TEST-001-001-CN006053,7,SCR,-14,2025-02-17,WEIGHT,54.5,kg
TEST-001-001,TEST-001-001-CN002054,6,SCR,-14,2024-12-22,WEIGHT,70.6,kg
TEST-001-001,TEST-001-001-CN006055,7,SCR,-14,2025-03-19,WEIGHT,50.2,kg
TEST-001-001,TEST-001-001-CN008056,7,SCR,-14,2025-02-13,WEIGHT,75.9,kg
TEST-001-001,TEST-001-001-CN004057,7,SCR,-14,2025-04-27,WEIGHT,39.2,kg
TEST-001-001,TEST-001-001-CN007058,7,SCR,-14,2025-04-09,WEIGHT,58.6,kg
TEST-001-001,TEST-001-001-CN009059,7,SCR,-14,2025-04-10,WEIGHT,65.5,kg
TEST-001-001,TEST-001-001-CN009060,7,SCR,-14,2024-12-18,WEIGHT,49.3,kg
TEST-001-001,TEST-001-001-CN002062,7,SCR,-14,2025-01-13,WEIGHT,76.5,kg
TEST-001-001,TEST-001-001-CN009064,6,SCR,-14,2025-02-23,WEIGHT,66.7,kg
TEST-001-001,TEST-001-001-CN009065,7,SCR,-14,2025-03-18,WEIGHT,80.6,kg
TEST-001-001,TEST-001-001-CN010066,7,SCR,-14,2024-12-29,WEIGHT,51.5,kg
TEST-001-001,TEST-001-001-CN007067,4,SCR,-14,2025-01-11,WEIGHT,70.2,kg
TEST-001-001,TEST-001-001-CN002068,7,SCR,-14,2025-03-26,WEIGHT,72.8,kg
TEST-001-001,TEST-001-001-CN003069,7,SCR,-14,2024-12-22,WEIGHT,70.5,kg
TEST-001-001,TEST-001-001-CN003070,7,SCR,-14,2025-02-03,WEIGHT,77.0,kg
TEST-001-001,TEST-001-001-CN005071,6,SCR,-14,2025-01-06,WEIGHT,76.1,kg
TEST-001-001,TEST-001-001-CN006072,7,SCR,-14,2025-01-01,WEIGHT,65.2,kg
TEST-001-001,TEST-001-001-CN006073,5,SCR,-14,2025-01-29,WEIGHT,55.1,kg
TEST-001-001,TEST-001-001-CN001074,6,SCR,-14,2025-01-13,WEIGHT,67.2,kg
TEST-001-001,TEST-001-001-CN003075,7,SCR,-14,2025-03-09,WEIGHT,59.1,kg
TEST-001-001,TEST-001-001-CN003076,7,SCR,-14,2025-02-09,WEIGHT,63.7,kg
TEST-001-001,TEST-001-001-CN008077,7,SCR,-14,2025-01-11,WEIGHT,66.3,kg
TEST-001-001,TEST-001-001-CN005078,6,SCR,-14,2025-02-27,WEIGHT,58.4,kg
TEST-001-001,TEST-001-001-CN005079,7,SCR,-14,2025-02-22,WEIGHT,75.1,kg
TEST-001-001,TEST-001-001-CN003080,7,SCR,-14,2025-03-21,WEIGHT,56.7,kg
TEST-001-001,TEST-001-001-CN001081,7,SCR,-14,2025-04-03,WEIGHT,49.7,kg
TEST-001-001,TEST-001-001-CN003082,6,SCR,-14,2025-02-17,WEIGHT,81.1,kg
TEST-001-001,TEST-001-001-CN009083,4,SCR,-14,2025-04-17,WEIGHT,74.8,kg
TEST-001-001,TEST-001-001-CN006084,7,SCR,-14,2025-01-11,WEIGHT,64.0,kg
TEST-001-001,TEST-001-001-CN010085,7,SCR,-14,2025-01-16,WEIGHT,85.8,kg
TEST-001-001,TEST-001-001-CN008086,5,SCR,-14,2025-02-20,WEIGHT,75.2,kg
TEST-001-001,TEST-001-001-CN001087,7,SCR,-14,2025-04-25,WEIGHT,57.2,kg
TEST-001-001,TEST-001-001-CN006088,7,SCR,-14,2025-04-19,WEIGHT,63.7,kg
TEST-001-001,TEST-001-001-CN009089,7,SCR,-14,2025-01-14,WEIGHT,72.0,kg
TEST-001-001,TEST-001-001-CN009090,7,SCR,-14,2025-04-08,WEIGHT,72.6,kg
TEST-001-001,TEST-001-001-CN005091,7,SCR,-14,2025-04-27,WEIGHT,59.8,kg
TEST-001-001,TEST-001-001-CN001092,7,SCR,-14,2025-03-03,WEIGHT,50.8,kg
TEST-001-001,TEST-001-001-CN006093,7,SCR,-14,2025-02-04,WEIGHT,82.9,kg
TEST-001-001,TEST-001-001-CN004094,7,SCR,-14,2025-03-23,WEIGHT,72.5,kg
TEST-001-001,TEST-001-001-CN004096,7,SCR,-14,2025-02-27,WEIGHT,78.1,kg
TEST-001-001,TEST-001-001-CN002097,7,SCR,-14,2025-01-05,WEIGHT,63.2,kg
TEST-001-001,TEST-001-001-CN004098,7,SCR,-14,2025-05-20,WEIGHT,76.0,kg
TEST-001-001,TEST-001-001-CN009099,6,SCR,-14,2025-01-29,WEIGHT,59.8,kg
TEST-001-001,TEST-001-001-CN006100,7,SCR,-14,2025-05-19,WEIGHT,100.6,kg
TEST-001-001,TEST-001-001-CN009101,7,SCR,-14,2025-04-02,WEIGHT,59.5,kg
TEST-001-001,TEST-001-001-CN010102,7,SCR,-14,2025-05-06,WEIGHT,86.3,kg
TEST-001-001,TEST-001-001-CN003103,3,SCR,-14,2025-01-01,WEIGHT,63.1,kg
TEST-001-001,TEST-001-001-CN009104,6,SCR,-14,2025-01-16,WEIGHT,60.6,kg
TEST-001-001,TEST-001-001-CN004105,7,SCR,-14,2025-03-16,WEIGHT,56.0,kg
TEST-001-001,TEST-001-001-CN010106,6,SCR,-14,2024-12-27,WEIGHT,73.0,kg
TEST-001-001,TEST-001-001-CN005107,7,SCR,-14,2025-04-18,WEIGHT,56.9,kg
TEST-001-001,TEST-001-001-CN007108,7,SCR,-14,2025-05-22,WEIGHT,59.0,kg
TEST-001-001,TEST-001-001-CN009110,7,SCR,-14,2025-03-28,WEIGHT,46.0,kg
TEST-001-001,TEST-001-001-CN010111,7,SCR,-14,2025-03-02,WEIGHT,50.3,kg
TEST-001-001,TEST-001-001-CN005112,7,SCR,-14,2025-02-09,WEIGHT,82.2,kg
TEST-001-001,TEST-001-001-CN010113,7,SCR,-14,2025-02-15,WEIGHT,64.7,kg
TEST-001-001,TEST-001-001-CN003115,7,SCR,-14,2025-05-07,WEIGHT,76.7,kg
TEST-001-001,TEST-001-001-CN010116,7,SCR,-14,2024-12-31,WEIGHT,75.3,kg
TEST-001-001,TEST-001-001-CN006117,7,SCR,-14,2025-05-13,WEIGHT,70.6,kg
TEST-001-001,TEST-001-001-CN002118,7,SCR,-14,2025-04-07,WEIGHT,52.2,kg
TEST-001-001,TEST-001-001-CN008119,5,SCR,-14,2025-01-25,WEIGHT,64.9,kg
TEST-001-001,TEST-001-001-CN008120,7,SCR,-14,2025-02-01,WEIGHT,89.3,kg
TEST-001-001,TEST-001-001-CN007121,7,SCR,-14,2025-04-11,WEIGHT,64.3,kg
TEST-001-001,TEST-001-001-CN009122,6,SCR,-14,2025-02-03,WEIGHT,68.8,kg
TEST-001-001,TEST-001-001-CN004123,7,SCR,-14,2025-01-06,WEIGHT,,kg
TEST-001-001,TEST-001-001-CN005124,7,SCR,-14,2025-01-05,WEIGHT,76.3,kg
TEST-001-001,TEST-001-001-CN009125,7,SCR,-14,2025-01-24,WEIGHT,78.1,kg
TEST-001-001,TEST-001-001-CN005126,7,SCR,-14,2025-02-06,WEIGHT,61.5,kg
TEST-001-001,TEST-001-001-CN001127,7,SCR,-14,2025-03-22,WEIGHT,,kg
TEST-001-001,TEST-001-001-CN006128,4,SCR,-14,2025-03-30,WEIGHT,55.3,kg
TEST-001-001,TEST-001-001-CN007129,7,SCR,-14,2025-03-14,WEIGHT,68.5,kg
TEST-001-001,TEST-001-001-CN010130,7,SCR,-14,2025-01-28,WEIGHT,71.6,kg
TEST-001-001,TEST-001-001-CN003131,7,SCR,-14,2024-12-30,WEIGHT,71.1,kg
TEST-001-001,TEST-001-001-CN008132,4,SCR,-14,2025-03-02,WEIGHT,65.3,kg
TEST-001-001,TEST-001-001-CN001133,7,SCR,-14,2025-04-01,WEIGHT,67.1,kg
TEST-001-001,TEST-001-001-CN006134,7,SCR,-14,2025-04-21,WEIGHT,68.9,kg
TEST-001-001,TEST-001-001-CN003135,3,SCR,-14,2024-12-23,WEIGHT,73.0,kg
TEST-001-001,TEST-001-001-CN005136,7,SCR,-14,2025-02-06,WEIGHT,70.3,kg
TEST-001-001,TEST-001-001-CN002137,7,SCR,-14,2024-12-23,WEIGHT,70.0,kg
TEST-001-001,TEST-001-001-CN003138,6,SCR,-14,2025-03-01,WEIGHT,62.7,kg
TEST-001-001,TEST-001-001-CN008139,7,SCR,-14,2025-02-01,WEIGHT,40.3,kg
TEST-001-001,TEST-001-001-CN006140,7,SCR,-14,2024-12-28,WEIGHT,79.9,kg
TEST-001-001,TEST-001-001-CN003141,6,SCR,-14,2025-05-04,WEIGHT,73.7,kg
TEST-001-001,TEST-001-001-CN006142,7,SCR,-14,2025-04-22,WEIGHT,75.1,kg
TEST-001-001,TEST-001-001-CN004143,6,SCR,-14,2025-05-18,WEIGHT,66.8,kg
TEST-001-001,TEST-001-001-CN006144,7,SCR,-14,2025-01-13,WEIGHT,57.7,kg
TEST-001-001,TEST-001-001-CN009145,7,SCR,-14,2025-03-16,WEIGHT,54.2,kg
TEST-001-001,TEST-001-001-CN009146,7,SCR,-14,2025-05-13,WEIGHT,85.5,kg
TEST-001-001,TEST-001-001-CN003147,6,SCR,-14,2025-03-24,WEIGHT,52.1,kg
TEST-001-001,TEST-001-001-CN009148,6,SCR,-14,2025-04-13,WEIGHT,,kg
TEST-001-001,TEST-001-001-CN004149,7,SCR,-14,2025-01-14,WEIGHT,52.8,kg
TEST-001-001,TEST-001-001-CN008150,7,SCR,-14,2025-01-17,WEIGHT,67.7,kg
TEST-001-001,TEST-001-001-CN010151,7,SCR,-14,2025-04-08,WEIGHT,78.4,kg
TEST-001-001,TEST-001-001-CN004152,7,SCR,-14,2025-05-06,WEIGHT,60.0,kg
TEST-001-001,TEST-001-001-CN007153,6,SCR,-14,2025-01-20,WEIGHT,65.2,kg
TEST-001-001,TEST-001-001-CN002154,6,SCR,-14,2025-02-26,WEIGHT,90.1,kg
TEST-001-001,TEST-001-001-CN008155,7,SCR,-14,2025-03-02,WEIGHT,,kg
TEST-001-001,TEST-001-001-CN003156,7,SCR,-14,2025-01-29,WEIGHT,61.1,kg
TEST-001-001,TEST-001-001-CN002157,7,SCR,-14,2025-02-12,WEIGHT,62.5,kg
TEST-001-001,TEST-001-001-CN005158,7,SCR,-14,2025-01-03,WEIGHT,57.3,kg
TEST-001-001,TEST-001-001-CN005159,7,SCR,-14,2025-04-19,WEIGHT,63.9,kg
TEST-001-001,TEST-001-001-CN009160,7,SCR,-14,2024-12-28,WEIGHT,75.3,kg
TEST-001-001,TEST-001-001-CN001161,7,SCR,-14,2025-02-10,WEIGHT,44.9,kg
TEST-001-001,TEST-001-001-CN010162,3,SCR,-14,2025-02-04,WEIGHT,58.3,kg
TEST-001-001,TEST-001-001-CN004163,7,SCR,-14,2024-12-23,WEIGHT,64.5,kg
TEST-001-001,TEST-001-001-CN002164,7,SCR,-14,2025-04-30,WEIGHT,52.9,kg
TEST-001-001,TEST-001-001-CN007165,7,SCR,-14,2025-01-22,WEIGHT,60.6,kg
TEST-001-001,TEST-001-001-CN006166,7,SCR,-14,2025-03-28,WEIGHT,76.1,kg
TEST-001-001,TEST-001-001-CN008167,7,SCR,-14,2025-03-09,WEIGHT,80.0,kg
TEST-001-001,TEST-001-001-CN002168,6,SCR,-14,2025-01-02,WEIGHT,67.3,kg
TEST-001-001,TEST-001-001-CN006169,7,SCR,-14,2025-01-31,WEIGHT,69.8,kg
TEST-001-001,TEST-001-001-CN003170,7,SCR,-14,2025-03-27,WEIGHT,53.0,kg
TEST-001-001,TEST-001-001-CN004171,7,SCR,-14,2025-02-18,WEIGHT,61.4,kg
TEST-001-001,TEST-001-001-CN003173,7,SCR,-14,2025-04-29,WEIGHT,59.4,kg
TEST-001-001,TEST-001-001-CN010174,7,SCR,-14,2025-04-02,WEIGHT,89.8,kg
TEST-001-001,TEST-001-001-CN005175,7,SCR,-14,2025-05-05,WEIGHT,66.2,kg
TEST-001-001,TEST-001-001-CN008176,7,SCR,-14,2025-01-18,WEIGHT,60.5,kg
TEST-001-001,TEST-001-001-CN002177,7,SCR,-14,2025-05-13,WEIGHT,85.6,kg
TEST-001-001,TEST-001-001-CN001178,7,SCR,-14,2025-03-30,WEIGHT,54.6,kg
TEST-001-001,TEST-001-001-CN009179,6,SCR,-14,2025-05-18,WEIGHT,58.7,kg
TEST-001-001,TEST-001-001-CN008180,7,SCR,-14,2025-02-06,WEIGHT,81.1,kg
TEST-001-001,TEST-001-001-CN005181,7,SCR,-14,2025-04-22,WEIGHT,72.8,kg
TEST-001-001,TEST-001-001-CN006182,6,SCR,-14,2024-12-25,WEIGHT,62.2,kg
TEST-001-001,TEST-001-001-CN006183,7,SCR,-14,2025-03-15,WEIGHT,81.3,kg
TEST-001-001,TEST-001-001-CN009184,7,SCR,-14,2025-01-20,WEIGHT,64.2,kg
TEST-001-001,TEST-001-001-CN002185,7,SCR,-14,2025-03-11,WEIGHT,72.1,kg
TEST-001-001,TEST-001-001-CN009186,7,SCR,-14,2025-05-29,WEIGHT,74.2,kg
TEST-001-001,TEST-001-001-CN004188,7,SCR,-14,2025-03-02,WEIGHT,37.4,kg
TEST-001-001,TEST-001-001-CN010189,7,SCR,-14,2025-02-20,WEIGHT,64.6,kg
TEST-001-001,TEST-001-001-CN005190,7,SCR,-14,2025-03-19,WEIGHT,47.1,kg
TEST-001-001,TEST-001-001-CN005191,6,SCR,-14,2025-03-22,WEIGHT,85.2,kg
TEST-001-001,TEST-001-001-CN004192,7,SCR,-14,2025-01-27,WEIGHT,66.8,kg
TEST-001-001,TEST-001-001-CN004193,7,SCR,-14,2025-02-16,WEIGHT,86.4,kg
TEST-001-001,TEST-001-001-CN007194,6,SCR,-14,2025-01-30,WEIGHT,69.5,kg
TEST-001-001,TEST-001-001-CN004195,6,SCR,-14,2025-05-23,WEIGHT,54.0,kg
TEST-001-001,TEST-001-001-CN002196,6,SCR,-14,2025-03-15,WEIGHT,76.1,kg
TEST-001-001,TEST-001-001-CN004197,3,SCR,-14,2025-04-12,WEIGHT,55.5,kg
TEST-001-001,TEST-001-001-CN008198,7,SCR,-14,2025-02-14,WEIGHT,63.7,kg
TEST-001-001,TEST-001-001-CN002199,7,SCR,-14,2025-01-16,WEIGHT,61.2,kg
TEST-001-001,TEST-001-001-CN004200,3,SCR,-14,2025-03-08,WEIGHT,56.9,kg
TEST-001-001,TEST-001-001-CN001001,8,BASE,0,2025-01-20,WEIGHT,83.7,kg
TEST-001-001,TEST-001-001-CN004002,8,BASE,0,2025-02-06,WEIGHT,98.8,kg
TEST-001-001,TEST-001-001-CN003003,8,BASE,0,2025-04-05,WEIGHT,60.3,kg
TEST-001-001,TEST-001-001-CN008004,8,BASE,0,2025-06-09,WEIGHT,43.3,kg
TEST-001-001,TEST-001-001-CN006005,7,BASE,0,2025-03-29,WEIGHT,64.0,kg
TEST-001-001,TEST-001-001-CN009006,6,BASE,0,2025-01-12,WEIGHT,53.4,kg
TEST-001-001,TEST-001-001-CN002007,8,BASE,0,2025-05-27,WEIGHT,,kg
TEST-001-001,TEST-001-001-CN002008,8,BASE,0,2025-02-01,WEIGHT,59.1,kg
TEST-001-001,TEST-001-001-CN004009,8,BASE,0,2025-05-26,WEIGHT,40.2,kg
TEST-001-001,TEST-001-001-CN009010,8,BASE,0,2025-03-28,WEIGHT,81.4,kg
TEST-001-001,TEST-001-001-CN002011,8,BASE,0,2025-04-27,WEIGHT,94.6,kg
TEST-001-001,TEST-001-001-CN001012,8,BASE,0,2025-02-14,WEIGHT,,kg
TEST-001-001,TEST-001-001-CN005013,8,BASE,0,2025-05-26,WEIGHT,60.1,kg
TEST-001-001,TEST-001-001-CN004014,4,BASE,0,2025-06-04,WEIGHT,76.7,kg
TEST-001-001,TEST-001-001-CN009015,7,BASE,0,2025-04-23,WEIGHT,85.9,kg
TEST-001-001,TEST-001-001-CN009016,8,BASE,0,2025-02-21,WEIGHT,74.2,kg
TEST-001-001,TEST-001-001-CN010017,8,BASE,0,2025-03-21,WEIGHT,76.4,kg
TEST-001-001,TEST-001-001-CN003018,8,BASE,0,2025-02-28,WEIGHT,73.0,kg
TEST-001-001,TEST-001-001-CN008019,7,BASE,0,2025-04-30,WEIGHT,57.4,kg
TEST-001-001,TEST-001-001-CN010020,8,BASE,0,2025-03-06,WEIGHT,49.7,kg
TEST-001-001,TEST-001-001-CN010021,5,BASE,0,2025-06-06,WEIGHT,71.4,kg
TEST-001-001,TEST-001-001-CN010022,7,BASE,0,2025-03-31,WEIGHT,79.7,kg
TEST-001-001,TEST-001-001-CN010023,8,BASE,0,2025-01-21,WEIGHT,84.3,kg
TEST-001-001,TEST-001-001-CN005024,8,BASE,0,2025-02-20,WEIGHT,71.1,kg
TEST-001-001,TEST-001-001-CN009025,8,BASE,0,2025-02-24,WEIGHT,49.1,kg
TEST-001-001,TEST-001-001-CN004026,8,BASE,0,2025-03-19,WEIGHT,61.6,kg
TEST-001-001,TEST-001-001-CN006027,8,BASE,0,2025-01-16,WEIGHT,48.9,kg
TEST-001-001,TEST-001-001-CN005028,7,BASE,0,2025-04-08,WEIGHT,74.4,kg
TEST-001-001,TEST-001-001-CN010029,8,BASE,0,2025-01-07,WEIGHT,74.8,kg
TEST-001-001,TEST-001-001-CN007030,8,BASE,0,2025-02-22,WEIGHT,71.8,kg
TEST-001-001,TEST-001-001-CN002031,8,BASE,0,2025-01-17,WEIGHT,73.2,kg
TEST-001-001,TEST-001-001-CN002032,8,BASE,0,2025-04-05,WEIGHT,81.1,kg
TEST-001-001,TEST-001-001-CN004033,8,BASE,0,2025-02-27,WEIGHT,51.5,kg
TEST-001-001,TEST-001-001-CN005034,8,BASE,0,2025-03-07,WEIGHT,64.7,kg
TEST-001-001,TEST-001-001-CN005035,8,BASE,0,2025-03-27,WEIGHT,47.4,kg
TEST-001-001,TEST-001-001-CN005036,8,BASE,0,2025-02-09,WEIGHT,62.7,kg
TEST-001-001,TEST-001-001-CN009038,8,BASE,0,2025-04-29,WEIGHT,60.1,kg
TEST-001-001,TEST-001-001-CN002039,8,BASE,0,2025-02-05,WEIGHT,93.7,kg
TEST-001-001,TEST-001-001-CN003040,8,BASE,0,2025-01-26,WEIGHT,44.0,kg
TEST-001-001,TEST-001-001-CN008041,8,BASE,0,2025-02-16,WEIGHT,64.7,kg
TEST-001-001,TEST-001-001-CN004042,8,BASE,0,2025-05-10,WEIGHT,59.3,kg
TEST-001-001,TEST-001-001-CN006043,8,BASE,0,2025-01-01,WEIGHT,96.1,kg
TEST-001-001,TEST-001-001-CN003044,8,BASE,0,2025-03-19,WEIGHT,70.0,kg
TEST-001-001,TEST-001-001-CN006045,8,BASE,0,2025-01-15,WEIGHT,62.8,kg
TEST-001-001,TEST-001-001-CN005046,8,BASE,0,2025-01-22,WEIGHT,67.0,kg
TEST-001-001,TEST-001-001-CN006047,8,BASE,0,2025-04-13,WEIGHT,41.1,kg
TEST-001-001,TEST-001-001-CN006048,8,BASE,0,2025-01-17,WEIGHT,64.6,kg
TEST-001-001,TEST-001-001-CN001049,8,BASE,0,2025-02-18,WEIGHT,67.3,kg
TEST-001-001,TEST-001-001-CN004050,6,BASE,0,2025-01-04,WEIGHT,68.2,kg
TEST-001-001,TEST-001-001-CN005051,8,BASE,0,2025-05-07,WEIGHT,75.0,kg
TEST-001-001,TEST-001-001-CN005052,7,BASE,0,2025-01-21,WEIGHT,66.8,kg
TEST-001-001,TEST-001-001-CN006053,8,BASE,0,2025-03-02,WEIGHT,63.5,kg
TEST-001-001,TEST-001-001-CN006055,8,BASE,0,2025-04-05,WEIGHT,71.6,kg
TEST-001-001,TEST-001-001-CN008056,8,BASE,0,2025-02-22,WEIGHT,57.0,kg
TEST-001-001,TEST-001-001-CN004057,8,BASE,0,2025-05-11,WEIGHT,64.9,kg
TEST-001-001,TEST-001-001-CN007058,8,BASE,0,2025-04-24,WEIGHT,60.3,kg
TEST-001-001,TEST-001-001-CN009059,8,BASE,0,2025-04-21,WEIGHT,59.6,kg
TEST-001-001,TEST-001-001-CN009060,8,BASE,0,2025-01-06,WEIGHT,55.8,kg
TEST-001-001,TEST-001-001-CN002062,8,BASE,0,2025-01-29,WEIGHT,63.4,kg
TEST-001-001,TEST-001-001-CN009063,3,BASE,0,2025-03-30,WEIGHT,71.9,kg
TEST-001-001,TEST-001-001-CN009064,7,BASE,0,2025-03-04,WEIGHT,81.5,kg
TEST-001-001,TEST-001-001-CN009065,8,BASE,0,2025-04-01,WEIGHT,87.9,kg
TEST-001-001,TEST-001-001-CN010066,8,BASE,0,2025-01-07,WEIGHT,62.4,kg
TEST-001-001,TEST-001-001-CN007067,5,BASE,0,2025-01-26,WEIGHT,78.4,kg
TEST-001-001,TEST-001-001-CN002068,8,BASE,0,2025-04-07,WEIGHT,,kg
TEST-001-001,TEST-001-001-CN003069,8,BASE,0,2025-01-04,WEIGHT,53.3,kg
TEST-001-001,TEST-001-001-CN003070,8,BASE,0,2025-02-18,WEIGHT,58.6,kg
TEST-001-001,TEST-001-001-CN005071,7,BASE,0,2025-01-20,WEIGHT,93.7,kg
TEST-001-001,TEST-001-001-CN006072,8,BASE,0,2025-01-13,WEIGHT,53.5,kg
TEST-001-001,TEST-001-001-CN006073,6,BASE,0,2025-02-11,WEIGHT,81.2,kg
TEST-001-001,TEST-001-001-CN001074,7,BASE,0,2025-01-28,WEIGHT,49.3,kg
TEST-001-001,TEST-001-001-CN003075,8,BASE,0,2025-03-21,WEIGHT,62.0,kg
TEST-001-001,TEST-001-001-CN003076,8,BASE,0,2025-02-18,WEIGHT,71.8,kg
TEST-001-001,TEST-001-001-CN008077,8,BASE,0,2025-01-23,WEIGHT,55.9,kg
TEST-001-001,TEST-001-001-CN005078,7,BASE,0,2025-03-14,WEIGHT,65.9,kg
TEST-001-001,TEST-001-001-CN005079,8,BASE,0,2025-03-12,WEIGHT,57.8,kg
TEST-001-001,TEST-001-001-CN003080,8,BASE,0,2025-04-05,WEIGHT,78.8,kg
TEST-001-001,TEST-001-001-CN001081,8,BASE,0,2025-04-20,WEIGHT,68.9,kg
TEST-001-001,TEST-001-001-CN003082,7,BASE,0,2025-02-26,WEIGHT,74.3,kg
TEST-001-001,TEST-001-001-CN009083,5,BASE,0,2025-04-27,WEIGHT,68.7,kg
TEST-001-001,TEST-001-001-CN006084,8,BASE,0,2025-01-21,WEIGHT,62.9,kg
TEST-001-001,TEST-001-001-CN010085,8,BASE,0,2025-01-28,WEIGHT,59.5,kg
TEST-001-001,TEST-001-001-CN008086,6,BASE,0,2025-03-05,WEIGHT,48.3,kg
TEST-001-001,TEST-001-001-CN001087,8,BASE,0,2025-05-10,WEIGHT,59.9,kg
TEST-001-001,TEST-001-001-CN006088,8,BASE,0,2025-05-04,WEIGHT,49.0,kg
TEST-001-001,TEST-001-001-CN009089,8,BASE,0,2025-02-03,WEIGHT,63.8,kg
TEST-001-001,TEST-001-001-CN009090,8,BASE,0,2025-04-19,WEIGHT,76.8,kg
TEST-001-001,TEST-001-001-CN005091,8,BASE,0,2025-05-13,WEIGHT,58.2,kg
TEST-001-001,TEST-001-001-CN001092,8,BASE,0,2025-03-21,WEIGHT,65.6,kg
TEST-001-001,TEST-001-001-CN006093,8,BASE,0,2025-02-20,WEIGHT,69.7,kg
TEST-001-001,TEST-001-001-CN004094,8,BASE,0,2025-04-06,WEIGHT,70.6,kg
TEST-001-001,TEST-001-001-CN007095,5,BASE,0,2025-01-01,WEIGHT,81.4,kg
TEST-001-001,TEST-001-001-CN004096,8,BASE,0,2025-03-19,WEIGHT,56.5,kg
TEST-001-001,TEST-001-001-CN002097,8,BASE,0,2025-01-21,WEIGHT,51.0,kg
TEST-001-001,TEST-001-001-CN004098,8,BASE,0,2025-06-05,WEIGHT,58.6,kg
TEST-001-001,TEST-001-001-CN006100,8,BASE,0,2025-05-31,WEIGHT,84.6,kg
TEST-001-001,TEST-001-001-CN009101,8,BASE,0,2025-04-16,WEIGHT,69.2,kg
TEST-001-001,TEST-001-001-CN010102,8,BASE,0,2025-05-20,WEIGHT,77.2,kg
TEST-001-001,TEST-001-001-CN003103,4,BASE,0,2025-01-16,WEIGHT,75.2,kg
TEST-001-001,TEST-001-001-CN009104,7,BASE,0,2025-01-31,WEIGHT,72.8,kg
TEST-001-001,TEST-001-001-CN004105,8,BASE,0,2025-04-01,WEIGHT,65.8,kg
TEST-001-001,TEST-001-001-CN010106,7,BASE,0,2025-01-12,WEIGHT,65.5,kg
TEST-001-001,TEST-001-001-CN005107,8,BASE,0,2025-04-29,WEIGHT,62.2,kg
TEST-001-001,TEST-001-001-CN007108,8,BASE,0,2025-06-06,WEIGHT,49.5,kg
TEST-001-001,TEST-001-001-CN003109,3,BASE,0,2025-04-01,WEIGHT,58.3,kg
TEST-001-001,TEST-001-001-CN009110,8,BASE,0,2025-04-13,WEIGHT,75.4,kg
TEST-001-001,TEST-001-001-CN010111,8,BASE,0,2025-03-12,WEIGHT,55.7,kg
TEST-001-001,TEST-001-001-CN005112,8,BASE,0,2025-02-24,WEIGHT,67.3,kg
TEST-001-001,TEST-001-001-CN010113,8,BASE,0,2025-02-26,WEIGHT,71.1,kg
TEST-001-001,TEST-001-001-CN003114,4,BASE,0,2025-04-05,WEIGHT,55.1,kg
TEST-001-001,TEST-001-001-CN003115,8,BASE,0,2025-05-19,WEIGHT,66.4,kg
TEST-001-001,TEST-001-001-CN010116,8,BASE,0,2025-01-14,WEIGHT,66.1,kg
TEST-001-001,TEST-001-001-CN006117,8,BASE,0,2025-05-25,WEIGHT,79.2,kg
TEST-001-001,TEST-001-001-CN002118,8,BASE,0,2025-04-17,WEIGHT,53.8,kg
TEST-001-001,TEST-001-001-CN008119,6,BASE,0,2025-02-10,WEIGHT,73.9,kg
TEST-001-001,TEST-001-001-CN008120,8,BASE,0,2025-02-15,WEIGHT,74.2,kg
TEST-001-001,TEST-001-001-CN007121,8,BASE,0,2025-04-24,WEIGHT,76.6,kg
TEST-001-001,TEST-001-001-CN009122,7,BASE,0,2025-02-18,WEIGHT,84.4,kg
TEST-001-001,TEST-001-001-CN004123,8,BASE,0,2025-01-15,WEIGHT,52.3,kg
TEST-001-001,TEST-001-001-CN005124,8,BASE,0,2025-01-18,WEIGHT,78.5,kg
TEST-001-001,TEST-001-001-CN009125,8,BASE,0,2025-02-02,WEIGHT,54.6,kg
TEST-001-001,TEST-001-001-CN005126,8,BASE,0,2025-02-19,WEIGHT,66.3,kg
TEST-001-001,TEST-001-001-CN001127,8,BASE,0,2025-04-04,WEIGHT,64.6,kg
TEST-001-001,TEST-001-001-CN006128,5,BASE,0,2025-04-17,WEIGHT,75.7,kg
TEST-001-001,TEST-001-001-CN007129,8,BASE,0,2025-03-25,WEIGHT,46.1,kg
TEST-001-001,TEST-001-001-CN010130,8,BASE,0,2025-02-11,WEIGHT,67.8,kg
TEST-001-001,TEST-001-001-CN003131,8,BASE,0,2025-01-12,WEIGHT,74.1,kg
TEST-001-001,TEST-001-001-CN008132,5,BASE,0,2025-03-17,WEIGHT,59.9,kg
TEST-001-001,TEST-001-001-CN001133,8,BASE,0,2025-04-15,WEIGHT,95.7,kg
TEST-001-001,TEST-001-001-CN006134,8,BASE,0,2025-05-08,WEIGHT,70.4,kg
TEST-001-001,TEST-001-001-CN003135,4,BASE,0,2025-01-08,WEIGHT,41.2,kg
TEST-001-001,TEST-001-001-CN005136,8,BASE,0,2025-02-21,WEIGHT,,kg
TEST-001-001,TEST-001-001-CN002137,8,BASE,0,2025-01-05,WEIGHT,72.5,kg
TEST-001-001,TEST-001-001-CN008139,8,BASE,0,2025-02-14,WEIGHT,82.2,kg
TEST-001-001,TEST-001-001-CN006140,8,BASE,0,2025-01-10,WEIGHT,73.5,kg
TEST-001-001,TEST-001-001-CN003141,7,BASE,0,2025-05-20,WEIGHT,64.2,kg
TEST-001-001,TEST-001-001-CN006142,8,BASE,0,2025-05-06,WEIGHT,68.1,kg
TEST-001-001,TEST-001-001-CN004143,7,BASE,0,2025-06-05,WEIGHT,81.5,kg
TEST-001-001,TEST-001-001-CN006144,8,BASE,0,2025-02-02,WEIGHT,91.1,kg
TEST-001-001,TEST-001-001-CN009145,8,BASE,0,2025-04-01,WEIGHT,60.1,kg
TEST-001-001,TEST-001-001-CN009146,8,BASE,0,2025-05-28,WEIGHT,61.2,kg
TEST-001-001,TEST-001-001-CN003147,7,BASE,0,2025-04-12,WEIGHT,70.0,kg
TEST-001-001,TEST-001-001-CN009148,7,BASE,0,2025-04-26,WEIGHT,41.9,kg
TEST-001-001,TEST-001-001-CN004149,8,BASE,0,2025-01-28,WEIGHT,82.1,kg
TEST-001-001,TEST-001-001-CN008150,8,BASE,0,2025-01-30,WEIGHT,80.6,kg
TEST-001-001,TEST-001-001-CN010151,8,BASE,0,2025-04-22,WEIGHT,65.9,kg
TEST-001-001,TEST-001-001-CN004152,8,BASE,0,2025-05-19,WEIGHT,58.4,kg
TEST-001-001,TEST-001-001-CN008155,8,BASE,0,2025-03-15,WEIGHT,90.1,kg
TEST-001-001,TEST-001-001-CN003156,8,BASE,0,2025-02-15,WEIGHT,64.5,kg
TEST-001-001,TEST-001-001-CN002157,8,BASE,0,2025-02-25,WEIGHT,68.3,kg
TEST-001-001,TEST-001-001-CN005158,8,BASE,0,2025-01-19,WEIGHT,50.9,kg
TEST-001-001,TEST-001-001-CN005159,8,BASE,0,2025-05-06,WEIGHT,63.5,kg
TEST-001-001,TEST-001-001-CN009160,8,BASE,0,2025-01-09,WEIGHT,56.2,kg
TEST-001-001,TEST-001-001-CN001161,8,BASE,0,2025-02-24,WEIGHT,68.4,kg
TEST-001-001,TEST-001-001-CN010162,4,BASE,0,2025-02-15,WEIGHT,73.2,kg
TEST-001-001,TEST-001-001-CN004163,8,BASE,0,2025-01-06,WEIGHT,59.0,kg
TEST-001-001,TEST-001-001-CN002164,8,BASE,0,2025-05-20,WEIGHT,73.5,kg
TEST-001-001,TEST-001-001-CN007165,8,BASE,0,2025-02-08,WEIGHT,72.9,kg
TEST-001-001,TEST-001-001-CN006166,8,BASE,0,2025-04-10,WEIGHT,89.1,kg
TEST-001-001,TEST-001-001-CN008167,8,BASE,0,2025-03-21,WEIGHT,56.8,kg
TEST-001-001,TEST-001-001-CN002168,7,BASE,0,2025-01-18,WEIGHT,59.7,kg
TEST-001-001,TEST-001-001-CN006169,8,BASE,0,2025-02-17,WEIGHT,68.3,kg
TEST-001-001,TEST-001-001-CN003170,8,BASE,0,2025-04-10,WEIGHT,72.0,kg
TEST-001-001,TEST-001-001-CN004171,8,BASE,0,2025-03-07,WEIGHT,76.0,kg
TEST-001-001,TEST-001-001-CN002172,6,BASE,0,2025-01-03,WEIGHT,59.7,kg
TEST-001-001,TEST-001-001-CN003173,8,BASE,0,2025-05-12,WEIGHT,74.1,kg
TEST-001-001,TEST-001-001-CN010174,8,BASE,0,2025-04-19,WEIGHT,53.1,kg
TEST-001-001,TEST-001-001-CN005175,8,BASE,0,2025-05-20,WEIGHT,64.2,kg
TEST-001-001,TEST-001-001-CN008176,8,BASE,0,2025-01-30,WEIGHT,68.3,kg
TEST-001-001,TEST-001-001-CN002177,8,BASE,0,2025-05-23,WEIGHT,76.4,kg
TEST-001-001,TEST-001-001-CN001178,8,BASE,0,2025-04-09,WEIGHT,55.2,kg
TEST-001-001,TEST-001-001-CN009179,7,BASE,0,2025-06-01,WEIGHT,55.6,kg
TEST-001-001,TEST-001-001-CN008180,8,BASE,0,2025-02-22,WEIGHT,72.5,kg
TEST-001-001,TEST-001-001-CN005181,8,BASE,0,2025-05-11,WEIGHT,79.9,kg
TEST-001-001,TEST-001-001-CN006182,7,BASE,0,2025-01-10,WEIGHT,80.2,kg
TEST-001-001,TEST-001-001-CN006183,8,BASE,0,2025-03-24,WEIGHT,54.2,kg
TEST-001-001,TEST-001-001-CN009184,8,BASE,0,2025-02-03,WEIGHT,40.3,kg
TEST-001-001,TEST-001-001-CN002185,8,BASE,0,2025-03-23,WEIGHT,74.0,kg
TEST-001-001,TEST-001-001-CN009186,8,BASE,0,2025-06-11,WEIGHT,56.9,kg
TEST-001-001,TEST-001-001-CN001187,6,BASE,0,2025-04-25,WEIGHT,53.2,kg
TEST-001-001,TEST-001-001-CN004188,8,BASE,0,2025-03-19,WEIGHT,60.3,kg
TEST-001-001,TEST-001-001-CN010189,8,BASE,0,2025-03-07,WEIGHT,49.9,kg
TEST-001-001,TEST-001-001-CN005190,8,BASE,0,2025-04-02,WEIGHT,61.5,kg
TEST-001-001,TEST-001-001-CN005191,7,BASE,0,2025-04-05,WEIGHT,79.9,kg
TEST-001-001,TEST-001-001-CN004192,8,BASE,0,2025-02-12,WEIGHT,67.3,kg
TEST-001-001,TEST-001-001-CN004193,8,BASE,0,2025-03-08,WEIGHT,85.8,kg
TEST-001-001,TEST-001-001-CN004195,7,BASE,0,2025-06-06,WEIGHT,57.8,kg
TEST-001-001,TEST-001-001-CN002196,7,BASE,0,2025-03-29,WEIGHT,74.5,kg
TEST-001-001,TEST-001-001-CN004197,4,BASE,0,2025-05-02,WEIGHT,76.8,kg
TEST-001-001,TEST-001-001-CN008198,8,BASE,0,2025-02-25,WEIGHT,47.2,kg
TEST-001-001,TEST-001-001-CN002199,8,BASE,0,2025-02-04,WEIGHT,61.0,kg
TEST-001-001,TEST-001-001-CN004200,4,BASE,0,2025-03-20,WEIGHT,81.2,kg
TEST-001-001,TEST-001-001-CN001001,9,W6,42,2025-03-04,WEIGHT,47.9,kg
TEST-001-001,TEST-001-001-CN004002,9,W6,42,2025-03-20,WEIGHT,64.7,kg
TEST-001-001,TEST-001-001-CN003003,9,W6,42,2025-05-14,WEIGHT,86.2,kg
TEST-001-001,TEST-001-001-CN008004,9,W6,42,2025-07-18,WEIGHT,45.7,kg
TEST-001-001,TEST-001-001-CN009006,7,W6,42,2025-02-25,WEIGHT,62.3,kg
TEST-001-001,TEST-001-001-CN002007,9,W6,42,2025-07-12,WEIGHT,44.6,kg
TEST-001-001,TEST-001-001-CN002008,9,W6,42,2025-03-13,WEIGHT,58.3,kg
TEST-001-001,TEST-001-001-CN004009,9,W6,42,2025-07-06,WEIGHT,59.5,kg
TEST-001-001,TEST-001-001-CN009010,9,W6,42,2025-05-09,WEIGHT,68.0,kg
TEST-001-001,TEST-001-001-CN002011,9,W6,42,2025-06-13,WEIGHT,41.8,kg
TEST-001-001,TEST-001-001-CN001012,9,W6,42,2025-03-31,WEIGHT,81.4,kg
TEST-001-001,TEST-001-001-CN005013,9,W6,42,2025-07-06,WEIGHT,49.7,kg
TEST-001-001,TEST-001-001-CN009015,8,W6,42,2025-06-04,WEIGHT,79.2,kg
TEST-001-001,TEST-001-001-CN009016,9,W6,42,2025-03-30,WEIGHT,94.4,kg
TEST-001-001,TEST-001-001-CN010017,9,W6,42,2025-05-02,WEIGHT,75.4,kg
TEST-001-001,TEST-001-001-CN003018,9,W6,42,2025-04-13,WEIGHT,59.7,kg
TEST-001-001,TEST-001-001-CN008019,8,W6,42,2025-06-16,WEIGHT,61.4,kg
TEST-001-001,TEST-001-001-CN010020,9,W6,42,2025-04-16,WEIGHT,71.9,kg
TEST-001-001,TEST-001-001-CN010021,6,W6,42,2025-07-16,WEIGHT,82.5,kg
TEST-001-001,TEST-001-001-CN010022,8,W6,42,2025-05-09,WEIGHT,77.7,kg
TEST-001-001,TEST-001-001-CN010023,9,W6,42,2025-03-03,WEIGHT,71.4,kg
TEST-001-001,TEST-001-001-CN005024,9,W6,42,2025-04-04,WEIGHT,65.5,kg
TEST-001-001,TEST-001-001-CN009025,9,W6,42,2025-04-09,WEIGHT,97.3,kg
TEST-001-001,TEST-001-001-CN004026,9,W6,42,2025-04-30,WEIGHT,94.6,kg
TEST-001-001,TEST-001-001-CN006027,9,W6,42,2025-02-23,WEIGHT,36.9,kg
TEST-001-001,TEST-001-001-CN005028,8,W6,42,2025-05-21,WEIGHT,53.4,kg
TEST-001-001,TEST-001-001-CN010029,9,W6,42,2025-02-21,WEIGHT,72.1,kg
TEST-001-001,TEST-001-001-CN007030,9,W6,42,2025-03-31,WEIGHT,64.8,kg
TEST-001-001,TEST-001-001-CN002031,9,W6,42,2025-02-28,WEIGHT,95.7,kg
TEST-001-001,TEST-001-001-CN002032,9,W6,42,2025-05-19,WEIGHT,66.7,kg
TEST-001-001,TEST-001-001-CN004033,9,W6,42,2025-04-06,WEIGHT,60.0,kg
TEST-001-001,TEST-001-001-CN005034,9,W6,42,2025-04-15,WEIGHT,63.0,kg
TEST-001-001,TEST-001-001-CN005035,9,W6,42,2025-05-06,WEIGHT,63.7,kg
TEST-001-001,TEST-001-001-CN005036,9,W6,42,2025-03-22,WEIGHT,48.1,kg
TEST-001-001,TEST-001-001-CN007037,7,W6,42,2025-06-02,WEIGHT,62.1,kg
TEST-001-001,TEST-001-001-CN009038,9,W6,42,2025-06-07,WEIGHT,62.6,kg
TEST-001-001,TEST-001-001-CN002039,9,W6,42,2025-03-19,WEIGHT,70.1,kg
TEST-001-001,TEST-001-001-CN003040,9,W6,42,2025-03-10,WEIGHT,88.4,kg
TEST-001-001,TEST-001-001-CN008041,9,W6,42,2025-03-30,WEIGHT,76.1,kg
TEST-001-001,TEST-001-001-CN004042,9,W6,42,2025-06-21,WEIGHT,61.1,kg
TEST-001-001,TEST-001-001-CN006043,9,W6,42,2025-02-15,WEIGHT,79.0,kg
TEST-001-001,TEST-001-001-CN003044,9,W6,42,2025-05-06,WEIGHT,71.7,kg
TEST-001-001,TEST-001-001-CN006045,9,W6,42,2025-03-03,WEIGHT,77.2,kg
TEST-001-001,TEST-001-001-CN005046,9,W6,42,2025-03-02,WEIGHT,66.7,kg
TEST-001-001,TEST-001-001-CN006047,9,W6,42,2025-05-25,WEIGHT,69.8,kg
TEST-001-001,TEST-001-001-CN006048,9,W6,42,2025-03-03,WEIGHT,69.2,kg
TEST-001-001,TEST-001-001-CN001049,9,W6,42,2025-03-30,WEIGHT,63.4,kg
TEST-001-001,TEST-001-001-CN004050,7,W6,42,2025-02-16,WEIGHT,,kg
TEST-001-001,TEST-001-001-CN005051,9,W6,42,2025-06-18,WEIGHT,47.8,kg
TEST-001-001,TEST-001-001-CN005052,8,W6,42,2025-03-03,WEIGHT,66.9,kg
TEST-001-001,TEST-001-001-CN006053,9,W6,42,2025-04-09,WEIGHT,65.9,kg
TEST-001-001,TEST-001-001-CN002054,7,W6,42,2025-02-17,WEIGHT,67.3,kg
TEST-001-001,TEST-001-001-CN006055,9,W6,42,2025-05-15,WEIGHT,70.6,kg
TEST-001-001,TEST-001-001-CN008056,9,W6,42,2025-04-10,WEIGHT,76.9,kg
TEST-001-001,TEST-001-001-CN004057,9,W6,42,2025-06-23,WEIGHT,55.4,kg
TEST-001-001,TEST-001-001-CN007058,9,W6,42,2025-06-09,WEIGHT,68.6,kg
TEST-001-001,TEST-001-001-CN009059,9,W6,42,2025-05-30,WEIGHT,87.6,kg
TEST-001-001,TEST-001-001-CN009060,9,W6,42,2025-02-16,WEIGHT,78.9,kg
TEST-001-001,TEST-001-001-CN006061,5,W6,42,2025-03-14,WEIGHT,55.5,kg
TEST-001-001,TEST-001-001-CN002062,9,W6,42,2025-03-09,WEIGHT,53.9,kg
TEST-001-001,TEST-001-001-CN009063,4,W6,42,2025-05-11,WEIGHT,65.9,kg
TEST-001-001,TEST-001-001-CN009064,8,W6,42,2025-04-16,WEIGHT,89.3,kg
TEST-001-001,TEST-001-001-CN009065,9,W6,42,2025-05-16,WEIGHT,55.0,kg
TEST-001-001,TEST-001-001-CN010066,9,W6,42,2025-02-18,WEIGHT,72.3,kg
TEST-001-001,TEST-001-001-CN007067,6,W6,42,2025-03-05,WEIGHT,81.7,kg
TEST-001-001,TEST-001-001-CN002068,9,W6,42,2025-05-18,WEIGHT,83.7,kg
TEST-001-001,TEST-001-001-CN003069,9,W6,42,2025-02-12,WEIGHT,71.7,kg
TEST-001-001,TEST-001-001-CN003070,9,W6,42,2025-04-05,WEIGHT,53.2,kg
TEST-001-001,TEST-001-001-CN005071,8,W6,42,2025-03-04,WEIGHT,85.9,kg
TEST-001-001,TEST-001-001-CN006072,9,W6,42,2025-03-02,WEIGHT,61.2,kg
TEST-001-001,TEST-001-001-CN006073,7,W6,42,2025-03-27,WEIGHT,64.3,kg
TEST-001-001,TEST-001-001-CN003075,9,W6,42,2025-05-05,WEIGHT,63.1,kg
TEST-001-001,TEST-001-001-CN003076,9,W6,42,2025-04-07,WEIGHT,77.8,kg
TEST-001-001,TEST-001-001-CN008077,9,W6,42,2025-03-08,WEIGHT,56.9,kg
TEST-001-001,TEST-001-001-CN005079,9,W6,42,2025-04-18,WEIGHT,69.7,kg
TEST-001-001,TEST-001-001-CN003080,9,W6,42,2025-05-11,WEIGHT,52.1,kg
TEST-001-001,TEST-001-001-CN001081,9,W6,42,2025-05-31,WEIGHT,50.5,kg
TEST-001-001,TEST-001-001-CN009083,6,W6,42,2025-06-08,WEIGHT,81.0,kg
TEST-001-001,TEST-001-001-CN006084,9,W6,42,2025-03-08,WEIGHT,62.2,kg
TEST-001-001,TEST-001-001-CN010085,9,W6,42,2025-03-09,WEIGHT,51.9,kg
TEST-001-001,TEST-001-001-CN008086,7,W6,42,2025-04-18,WEIGHT,73.5,kg
TEST-001-001,TEST-001-001-CN001087,9,W6,42,2025-06-19,WEIGHT,67.7,kg
TEST-001-001,TEST-001-001-CN006088,9,W6,42,2025-06-12,WEIGHT,69.0,kg
TEST-001-001,TEST-001-001-CN009089,9,W6,42,2025-03-14,WEIGHT,70.7,kg
TEST-001-001,TEST-001-001-CN009090,9,W6,42,2025-06-03,WEIGHT,64.2,kg
TEST-001-001,TEST-001-001-CN005091,9,W6,42,2025-06-25,WEIGHT,68.4,kg
TEST-001-001,TEST-001-001-CN001092,9,W6,42,2025-04-28,WEIGHT,62.2,kg
TEST-001-001,TEST-001-001-CN006093,9,W6,42,2025-04-02,WEIGHT,54.9,kg
TEST-001-001,TEST-001-001-CN004094,9,W6,42,2025-05-13,WEIGHT,77.2,kg
TEST-001-001,TEST-001-001-CN007095,6,W6,42,2025-02-14,WEIGHT,54.7,kg
TEST-001-001,TEST-001-001-CN004096,9,W6,42,2025-04-30,WEIGHT,80.7,kg
TEST-001-001,TEST-001-001-CN002097,9,W6,42,2025-03-06,WEIGHT,76.6,kg
TEST-001-001,TEST-001-001-CN004098,9,W6,42,2025-07-16,WEIGHT,59.2,kg
TEST-001-001,TEST-001-001-CN009099,7,W6,42,2025-03-29,WEIGHT,60.1,kg
TEST-001-001,TEST-001-001-CN006100,9,W6,42,2025-07-15,WEIGHT,83.4,kg
TEST-001-001,TEST-001-001-CN009101,9,W6,42,2025-05-27,WEIGHT,75.5,kg
TEST-001-001,TEST-001-001-CN010102,9,W6,42,2025-06-29,WEIGHT,56.9,kg
TEST-001-001,TEST-001-001-CN009104,8,W6,42,2025-03-15,WEIGHT,60.3,kg
TEST-001-001,TEST-001-001-CN004105,9,W6,42,2025-05-13,WEIGHT,67.1,kg
TEST-001-001,TEST-001-001-CN010106,8,W6,42,2025-02-21,WEIGHT,78.2,kg
TEST-001-001,TEST-001-001-CN005107,9,W6,42,2025-06-11,WEIGHT,69.1,kg
TEST-001-001,TEST-001-001-CN007108,9,W6,42,2025-07-22,WEIGHT,72.1,kg
TEST-001-001,TEST-001-001-CN003109,4,W6,42,2025-05-09,WEIGHT,95.4,kg
TEST-001-001,TEST-001-001-CN009110,9,W6,42,2025-05-27,WEIGHT,75.4,kg
TEST-001-001,TEST-001-001-CN010111,9,W6,42,2025-04-23,WEIGHT,66.8,kg
TEST-001-001,TEST-001-001-CN005112,9,W6,42,2025-04-12,WEIGHT,62.7,kg
TEST-001-001,TEST-001-001-CN010113,9,W6,42,2025-04-12,WEIGHT,72.5,kg
TEST-001-001,TEST-001-001-CN003114,5,W6,42,2025-05-16,WEIGHT,67.7,kg
TEST-001-001,TEST-001-001-CN003115,9,W6,42,2025-06-30,WEIGHT,77.6,kg
TEST-001-001,TEST-001-001-CN010116,9,W6,42,2025-02-26,WEIGHT,63.6,kg
TEST-001-001,TEST-001-001-CN006117,9,W6,42,2025-07-07,WEIGHT,65.5,kg
TEST-001-001,TEST-001-001-CN002118,9,W6,42,2025-05-28,WEIGHT,79.1,kg
TEST-001-001,TEST-001-001-CN008119,7,W6,42,2025-03-23,WEIGHT,48.7,kg
TEST-001-001,TEST-001-001-CN008120,9,W6,42,2025-03-30,WEIGHT,61.9,kg
TEST-001-001,TEST-001-001-CN007121,9,W6,42,2025-05-31,WEIGHT,65.3,kg
TEST-001-001,TEST-001-001-CN009122,8,W6,42,2025-03-29,WEIGHT,64.7,kg
TEST-001-001,TEST-001-001-CN004123,9,W6,42,2025-03-02,WEIGHT,59.1,kg
TEST-001-001,TEST-001-001-CN005124,9,W6,42,2025-03-02,WEIGHT,71.4,kg
TEST-001-001,TEST-001-001-CN009125,9,W6,42,2025-03-17,WEIGHT,65.1,kg
TEST-001-001,TEST-001-001-CN005126,9,W6,42,2025-04-01,WEIGHT,55.3,kg
TEST-001-001,TEST-001-001-CN001127,9,W6,42,2025-05-16,WEIGHT,66.8,kg
TEST-001-001,TEST-001-001-CN006128,6,W6,42,2025-05-25,WEIGHT,64.2,kg
TEST-001-001,TEST-001-001-CN007129,9,W6,42,2025-05-10,WEIGHT,70.3,kg
TEST-001-001,TEST-001-001-CN010130,9,W6,42,2025-03-25,WEIGHT,77.0,kg
TEST-001-001,TEST-001-001-CN003131,9,W6,42,2025-02-28,WEIGHT,56.2,kg
TEST-001-001,TEST-001-001-CN008132,6,W6,42,2025-04-28,WEIGHT,59.1,kg
TEST-001-001,TEST-001-001-CN001133,9,W6,42,2025-06-02,WEIGHT,77.2,kg
TEST-001-001,TEST-001-001-CN006134,9,W6,42,2025-06-15,WEIGHT,,kg
TEST-001-001,TEST-001-001-CN005136,9,W6,42,2025-03-31,WEIGHT,75.5,kg
TEST-001-001,TEST-001-001-CN002137,9,W6,42,2025-02-14,WEIGHT,62.8,kg
TEST-001-001,TEST-001-001-CN003138,7,W6,42,2025-04-21,WEIGHT,57.6,kg
TEST-001-001,TEST-001-001-CN008139,9,W6,42,2025-03-28,WEIGHT,80.3,kg
TEST-001-001,TEST-001-001-CN006140,9,W6,42,2025-02-18,WEIGHT,64.7,kg
TEST-001-001,TEST-001-001-CN003141,8,W6,42,2025-07-04,WEIGHT,85.7,kg
TEST-001-001,TEST-001-001-CN006142,9,W6,42,2025-06-22,WEIGHT,69.5,kg
TEST-001-001,TEST-001-001-CN004143,8,W6,42,2025-07-15,WEIGHT,79.2,kg
TEST-001-001,TEST-001-001-CN006144,9,W6,42,2025-03-13,WEIGHT,54.0,kg
TEST-001-001,TEST-001-001-CN009145,9,W6,42,2025-05-09,WEIGHT,74.2,kg
TEST-001-001,TEST-001-001-CN009146,9,W6,42,2025-07-05,WEIGHT,84.1,kg
TEST-001-001,TEST-001-001-CN003147,8,W6,42,2025-05-20,WEIGHT,79.0,kg
TEST-001-001,TEST-001-001-CN004149,9,W6,42,2025-03-15,WEIGHT,59.7,kg
TEST-001-001,TEST-001-001-CN008150,9,W6,42,2025-03-13,WEIGHT,96.2,kg
TEST-001-001,TEST-001-001-CN010151,9,W6,42,2025-06-03,WEIGHT,58.2,kg
TEST-001-001,TEST-001-001-CN004152,9,W6,42,2025-06-25,WEIGHT,69.0,kg
TEST-001-001,TEST-001-001-CN007153,7,W6,42,2025-03-16,WEIGHT,51.5,kg
TEST-001-001,TEST-001-001-CN002154,7,W6,42,2025-04-21,WEIGHT,80.0,kg
TEST-001-001,TEST-001-001-CN008155,9,W6,42,2025-04-24,WEIGHT,53.3,kg
TEST-001-001,TEST-001-001-CN003156,9,W6,42,2025-03-27,WEIGHT,49.3,kg
TEST-001-001,TEST-001-001-CN002157,9,W6,42,2025-04-08,WEIGHT,70.7,kg
TEST-001-001,TEST-001-001-CN005158,9,W6,42,2025-03-04,WEIGHT,67.8,kg
TEST-001-001,TEST-001-001-CN005159,9,W6,42,2025-06-16,WEIGHT,67.6,kg
TEST-001-001,TEST-001-001-CN009160,9,W6,42,2025-02-20,WEIGHT,68.8,kg
TEST-001-001,TEST-001-001-CN001161,9,W6,42,2025-04-06,WEIGHT,80.0,kg
TEST-001-001,TEST-001-001-CN004163,9,W6,42,2025-02-19,WEIGHT,62.9,kg
TEST-001-001,TEST-001-001-CN002164,9,W6,42,2025-06-25,WEIGHT,70.8,kg
TEST-001-001,TEST-001-001-CN007165,9,W6,42,2025-03-24,WEIGHT,44.3,kg
TEST-001-001,TEST-001-001-CN006166,9,W6,42,2025-05-20,WEIGHT,54.7,kg
TEST-001-001,TEST-001-001-CN008167,9,W6,42,2025-04-29,WEIGHT,43.1,kg
TEST-001-001,TEST-001-001-CN002168,8,W6,42,2025-02-28,WEIGHT,56.5,kg
TEST-001-001,TEST-001-001-CN006169,9,W6,42,2025-03-31,WEIGHT,91.5,kg
TEST-001-001,TEST-001-001-CN003170,9,W6,42,2025-05-18,WEIGHT,79.1,kg
TEST-001-001,TEST-001-001-CN004171,9,W6,42,2025-04-17,WEIGHT,79.1,kg
TEST-001-001,TEST-001-001-CN002172,7,W6,42,2025-02-14,WEIGHT,58.4,kg
TEST-001-001,TEST-001-001-CN003173,9,W6,42,2025-06-29,WEIGHT,63.8,kg
TEST-001-001,TEST-001-001-CN010174,9,W6,42,2025-06-02,WEIGHT,45.9,kg
TEST-001-001,TEST-001-001-CN005175,9,W6,42,2025-06-28,WEIGHT,70.9,kg
TEST-001-001,TEST-001-001-CN008176,9,W6,42,2025-03-17,WEIGHT,49.9,kg
TEST-001-001,TEST-001-001-CN002177,9,W6,42,2025-07-02,WEIGHT,50.9,kg
TEST-001-001,TEST-001-001-CN001178,9,W6,42,2025-05-21,WEIGHT,46.0,kg
TEST-001-001,TEST-001-001-CN009179,8,W6,42,2025-07-16,WEIGHT,72.5,kg
TEST-001-001,TEST-001-001-CN008180,9,W6,42,2025-04-05,WEIGHT,71.5,kg
TEST-001-001,TEST-001-001-CN005181,9,W6,42,2025-06-18,WEIGHT,76.3,kg
TEST-001-001,TEST-001-001-CN006182,8,W6,42,2025-02-17,WEIGHT,66.3,kg
TEST-001-001,TEST-001-001-CN006183,9,W6,42,2025-05-04,WEIGHT,103.3,kg
TEST-001-001,TEST-001-001-CN009184,9,W6,42,2025-03-11,WEIGHT,81.7,kg
TEST-001-001,TEST-001-001-CN002185,9,W6,42,2025-05-05,WEIGHT,57.9,kg
TEST-001-001,TEST-001-001-CN009186,9,W6,42,2025-07-19,WEIGHT,50.4,kg
TEST-001-001,TEST-001-001-CN001187,7,W6,42,2025-05-31,WEIGHT,55.6,kg
TEST-001-001,TEST-001-001-CN004188,9,W6,42,2025-04-27,WEIGHT,61.5,kg
TEST-001-001,TEST-001-001-CN010189,9,W6,42,2025-04-15,WEIGHT,61.2,kg
TEST-001-001,TEST-001-001-CN005190,9,W6,42,2025-05-14,WEIGHT,70.3,kg
TEST-001-001,TEST-001-001-CN005191,8,W6,42,2025-05-17,WEIGHT,66.2,kg
TEST-001-001,TEST-001-001-CN004192,9,W6,42,2025-03-26,WEIGHT,73.7,kg
TEST-001-001,TEST-001-001-CN004193,9,W6,42,2025-04-17,WEIGHT,65.4,kg
TEST-001-001,TEST-001-001-CN007194,7,W6,42,2025-03-30,WEIGHT,72.7,kg
TEST-001-001,TEST-001-001-CN002196,8,W6,42,2025-05-09,WEIGHT,59.2,kg
TEST-001-001,TEST-001-001-CN008198,9,W6,42,2025-04-10,WEIGHT,73.0,kg
TEST-001-001,TEST-001-001-CN002199,9,W6,42,2025-03-17,WEIGHT,73.6,kg
TEST-001-001,TEST-001-001-CN001001,10,W12,84,2025-04-17,WEIGHT,81.9,kg
TEST-001-001,TEST-001-001-CN004002,10,W12,84,2025-05-01,WEIGHT,63.0,kg
TEST-001-001,TEST-001-001-CN003003,10,W12,84,2025-06-22,WEIGHT,64.5,kg
TEST-001-001,TEST-001-001-CN008004,10,W12,84,2025-08-31,WEIGHT,69.5,kg
TEST-001-001,TEST-001-001-CN006005,8,W12,84,2025-06-21,WEIGHT,79.7,kg
TEST-001-001,TEST-001-001-CN009006,8,W12,84,2025-04-06,WEIGHT,67.9,kg
TEST-001-001,TEST-001-001-CN002007,10,W12,84,2025-08-22,WEIGHT,75.3,kg
TEST-001-001,TEST-001-001-CN002008,10,W12,84,2025-04-22,WEIGHT,70.2,kg
TEST-001-001,TEST-001-001-CN004009,10,W12,84,2025-08-23,WEIGHT,78.6,kg
TEST-001-001,TEST-001-001-CN009010,10,W12,84,2025-06-18,WEIGHT,73.4,kg
TEST-001-001,TEST-001-001-CN002011,10,W12,84,2025-07-22,WEIGHT,57.6,kg
TEST-001-001,TEST-001-001-CN001012,10,W12,84,2025-05-13,WEIGHT,54.5,kg
TEST-001-001,TEST-001-001-CN005013,10,W12,84,2025-08-21,WEIGHT,58.7,kg
TEST-001-001,TEST-001-001-CN009015,9,W12,84,2025-07-19,WEIGHT,58.1,kg
TEST-001-001,TEST-001-001-CN009016,10,W12,84,2025-05-14,WEIGHT,49.9,kg
TEST-001-001,TEST-001-001-CN010017,10,W12,84,2025-06-14,WEIGHT,56.1,kg
TEST-001-001,TEST-001-001-CN003018,10,W12,84,2025-05-27,WEIGHT,51.4,kg
TEST-001-001,TEST-001-001-CN008019,9,W12,84,2025-07-22,WEIGHT,75.2,kg
TEST-001-001,TEST-001-001-CN010020,10,W12,84,2025-05-29,WEIGHT,45.6,kg
TEST-001-001,TEST-001-001-CN010022,9,W12,84,2025-06-21,WEIGHT,58.3,kg
TEST-001-001,TEST-001-001-CN010023,10,W12,84,2025-04-20,WEIGHT,55.1,kg
TEST-001-001,TEST-001-001-CN005024,10,W12,84,2025-05-13,WEIGHT,92.0,kg
TEST-001-001,TEST-001-001-CN009025,10,W12,84,2025-05-21,WEIGHT,70.1,kg
TEST-001-001,TEST-001-001-CN004026,10,W12,84,2025-06-12,WEIGHT,65.7,kg
TEST-001-001,TEST-001-001-CN006027,10,W12,84,2025-04-08,WEIGHT,58.9,kg
TEST-001-001,TEST-001-001-CN005028,9,W12,84,2025-06-28,WEIGHT,58.9,kg
TEST-001-001,TEST-001-001-CN010029,10,W12,84,2025-04-06,WEIGHT,63.2,kg
TEST-001-001,TEST-001-001-CN007030,10,W12,84,2025-05-14,WEIGHT,65.9,kg
TEST-001-001,TEST-001-001-CN002031,10,W12,84,2025-04-10,WEIGHT,79.4,kg
TEST-001-001,TEST-001-001-CN002032,10,W12,84,2025-07-01,WEIGHT,,kg
TEST-001-001,TEST-001-001-CN004033,10,W12,84,2025-05-21,WEIGHT,77.2,kg
TEST-001-001,TEST-001-001-CN005034,10,W12,84,2025-05-30,WEIGHT,35.0,kg
TEST-001-001,TEST-001-001-CN005035,10,W12,84,2025-06-20,WEIGHT,74.4,kg
TEST-001-001,TEST-001-001-CN005036,10,W12,84,2025-05-01,WEIGHT,71.7,kg
TEST-001-001,TEST-001-001-CN007037,8,W12,84,2025-07-13,WEIGHT,39.6,kg
TEST-001-001,TEST-001-001-CN009038,10,W12,84,2025-07-18,WEIGHT,66.1,kg
TEST-001-001,TEST-001-001-CN002039,10,W12,84,2025-05-04,WEIGHT,103.6,kg
TEST-001-001,TEST-001-001-CN003040,10,W12,84,2025-04-19,WEIGHT,64.6,kg
TEST-001-001,TEST-001-001-CN008041,10,W12,84,2025-05-10,WEIGHT,62.0,kg
TEST-001-001,TEST-001-001-CN004042,10,W12,84,2025-08-06,WEIGHT,81.1,kg
TEST-001-001,TEST-001-001-CN006043,10,W12,84,2025-03-30,WEIGHT,68.4,kg
TEST-001-001,TEST-001-001-CN003044,10,W12,84,2025-06-16,WEIGHT,46.6,kg
TEST-001-001,TEST-001-001-CN006045,10,W12,84,2025-04-15,WEIGHT,63.4,kg
TEST-001-001,TEST-001-001-CN005046,10,W12,84,2025-04-18,WEIGHT,64.6,kg
TEST-001-001,TEST-001-001-CN006047,10,W12,84,2025-07-06,WEIGHT,48.9,kg
TEST-001-001,TEST-001-001-CN006048,10,W12,84,2025-04-15,WEIGHT,72.0,kg
TEST-001-001,TEST-001-001-CN001049,10,W12,84,2025-05-12,WEIGHT,85.2,kg
TEST-001-001,TEST-001-001-CN004050,8,W12,84,2025-03-29,WEIGHT,75.3,kg
TEST-001-001,TEST-001-001-CN005051,10,W12,84,2025-07-28,WEIGHT,83.4,kg
TEST-001-001,TEST-001-001-CN005052,9,W12,84,2025-04-11,WEIGHT,60.4,kg
TEST-001-001,TEST-001-001-CN006053,10,W12,84,2025-05-24,WEIGHT,67.0,kg
TEST-001-001,TEST-001-001-CN002054,8,W12,84,2025-04-02,WEIGHT,55.4,kg
TEST-001-001,TEST-001-001-CN006055,10,W12,84,2025-06-29,WEIGHT,,kg
TEST-001-001,TEST-001-001-CN008056,10,W12,84,2025-05-19,WEIGHT,90.3,kg
TEST-001-001,TEST-001-001-CN004057,10,W12,84,2025-08-01,WEIGHT,47.6,kg
TEST-001-001,TEST-001-001-CN007058,10,W12,84,2025-07-16,WEIGHT,46.4,kg
TEST-001-001,TEST-001-001-CN009059,10,W12,84,2025-07-11,WEIGHT,62.9,kg
TEST-001-001,TEST-001-001-CN009060,10,W12,84,2025-03-30,WEIGHT,68.7,kg
TEST-001-001,TEST-001-001-CN006061,6,W12,84,2025-04-24,WEIGHT,57.8,kg
TEST-001-001,TEST-001-001-CN002062,10,W12,84,2025-04-21,WEIGHT,72.3,kg
TEST-001-001,TEST-001-001-CN009064,9,W12,84,2025-06-02,WEIGHT,49.7,kg
TEST-001-001,TEST-001-001-CN009065,10,W12,84,2025-06-29,WEIGHT,50.5,kg
TEST-001-001,TEST-001-001-CN010066,10,W12,84,2025-04-01,WEIGHT,71.5,kg
TEST-001-001,TEST-001-001-CN002068,10,W12,84,2025-06-29,WEIGHT,75.4,kg
TEST-001-001,TEST-001-001-CN003069,10,W12,84,2025-03-26,WEIGHT,72.0,kg
TEST-001-001,TEST-001-001-CN003070,10,W12,84,2025-05-11,WEIGHT,53.1,kg
TEST-001-001,TEST-001-001-CN005071,9,W12,84,2025-04-16,WEIGHT,65.8,kg
TEST-001-001,TEST-001-001-CN006072,10,W12,84,2025-04-11,WEIGHT,69.9,kg
TEST-001-001,TEST-001-001-CN006073,8,W12,84,2025-05-11,WEIGHT,73.0,kg
TEST-001-001,TEST-001-001-CN001074,8,W12,84,2025-04-18,WEIGHT,59.4,kg
TEST-001-001,TEST-001-001-CN003075,10,W12,84,2025-06-15,WEIGHT,61.7,kg
TEST-001-001,TEST-001-001-CN003076,10,W12,84,2025-05-16,WEIGHT,61.1,kg
TEST-001-001,TEST-001-001-CN008077,10,W12,84,2025-04-17,WEIGHT,56.9,kg
TEST-001-001,TEST-001-001-CN005078,8,W12,84,2025-06-11,WEIGHT,59.6,kg
TEST-001-001,TEST-001-001-CN005079,10,W12,84,2025-05-30,WEIGHT,70.0,kg
TEST-001-001,TEST-001-001-CN003080,10,W12,84,2025-06-24,WEIGHT,49.7,kg
TEST-001-001,TEST-001-001-CN001081,10,W12,84,2025-07-10,WEIGHT,71.0,kg
TEST-001-001,TEST-001-001-CN003082,8,W12,84,2025-05-21,WEIGHT,58.7,kg
TEST-001-001,TEST-001-001-CN006084,10,W12,84,2025-04-18,WEIGHT,61.9,kg
TEST-001-001,TEST-001-001-CN010085,10,W12,84,2025-04-23,WEIGHT,71.6,kg
TEST-001-001,TEST-001-001-CN008086,8,W12,84,2025-05-25,WEIGHT,46.8,kg
TEST-001-001,TEST-001-001-CN001087,10,W12,84,2025-08-02,WEIGHT,,kg
TEST-001-001,TEST-001-001-CN006088,10,W12,84,2025-07-30,WEIGHT,51.7,kg
TEST-001-001,TEST-001-001-CN009089,10,W12,84,2025-04-22,WEIGHT,59.2,kg
TEST-001-001,TEST-001-001-CN009090,10,W12,84,2025-07-09,WEIGHT,53.5,kg
TEST-001-001,TEST-001-001-CN005091,10,W12,84,2025-08-06,WEIGHT,51.0,kg
TEST-001-001,TEST-001-001-CN001092,10,W12,84,2025-06-11,WEIGHT,60.7,kg
TEST-001-001,TEST-001-001-CN006093,10,W12,84,2025-05-13,WEIGHT,75.8,kg
TEST-001-001,TEST-001-001-CN004094,10,W12,84,2025-06-27,WEIGHT,77.5,kg
TEST-001-001,TEST-001-001-CN007095,7,W12,84,2025-03-27,WEIGHT,57.9,kg
TEST-001-001,TEST-001-001-CN004096,10,W12,84,2025-06-11,WEIGHT,74.1,kg
TEST-001-001,TEST-001-001-CN002097,10,W12,84,2025-04-14,WEIGHT,76.8,kg
TEST-001-001,TEST-001-001-CN004098,10,W12,84,2025-08-25,WEIGHT,36.1,kg
TEST-001-001,TEST-001-001-CN009099,8,W12,84,2025-05-07,WEIGHT,56.9,kg
TEST-001-001,TEST-001-001-CN006100,10,W12,84,2025-08-22,WEIGHT,64.5,kg
TEST-001-001,TEST-001-001-CN009101,10,W12,84,2025-07-03,WEIGHT,50.7,kg
TEST-001-001,TEST-001-001-CN010102,10,W12,84,2025-08-13,WEIGHT,65.6,kg
TEST-001-001,TEST-001-001-CN009104,9,W12,84,2025-04-25,WEIGHT,49.7,kg
TEST-001-001,TEST-001-001-CN004105,10,W12,84,2025-06-18,WEIGHT,80.8,kg
TEST-001-001,TEST-001-001-CN010106,9,W12,84,2025-04-03,WEIGHT,74.8,kg
TEST-001-001,TEST-001-001-CN005107,10,W12,84,2025-07-23,WEIGHT,72.2,kg
TEST-001-001,TEST-001-001-CN007108,10,W12,84,2025-08-29,WEIGHT,51.7,kg
TEST-001-001,TEST-001-001-CN009110,10,W12,84,2025-07-08,WEIGHT,49.6,kg
TEST-001-001,TEST-001-001-CN010111,10,W12,84,2025-06-05,WEIGHT,72.3,kg
TEST-001-001,TEST-001-001-CN005112,10,W12,84,2025-05-22,WEIGHT,52.6,kg
TEST-001-001,TEST-001-001-CN010113,10,W12,84,2025-05-23,WEIGHT,79.0,kg
TEST-001-001,TEST-001-001-CN003114,6,W12,84,2025-06-25,WEIGHT,72.4,kg
TEST-001-001,TEST-001-001-CN003115,10,W12,84,2025-08-10,WEIGHT,85.8,kg
TEST-001-001,TEST-001-001-CN010116,10,W12,84,2025-04-05,WEIGHT,53.3,kg
TEST-001-001,TEST-001-001-CN006117,10,W12,84,2025-08-17,WEIGHT,75.7,kg
TEST-001-001,TEST-001-001-CN002118,10,W12,84,2025-07-12,WEIGHT,65.4,kg
TEST-001-001,TEST-001-001-CN008119,8,W12,84,2025-05-04,WEIGHT,75.5,kg
TEST-001-001,TEST-001-001-CN008120,10,W12,84,2025-05-07,WEIGHT,63.8,kg
TEST-001-001,TEST-001-001-CN007121,10,W12,84,2025-07-18,WEIGHT,50.9,kg
TEST-001-001,TEST-001-001-CN009122,9,W12,84,2025-05-11,WEIGHT,72.8,kg
TEST-001-001,TEST-001-001-CN004123,10,W12,84,2025-04-12,WEIGHT,67.5,kg
TEST-001-001,TEST-001-001-CN005124,10,W12,84,2025-04-11,WEIGHT,51.2,kg
TEST-001-001,TEST-001-001-CN009125,10,W12,84,2025-04-30,WEIGHT,71.9,kg
TEST-001-001,TEST-001-001-CN005126,10,W12,84,2025-05-15,WEIGHT,81.9,kg
TEST-001-001,TEST-001-001-CN001127,10,W12,84,2025-06-30,WEIGHT,81.6,kg
TEST-001-001,TEST-001-001-CN007129,10,W12,84,2025-06-17,WEIGHT,52.5,kg
TEST-001-001,TEST-001-001-CN010130,10,W12,84,2025-05-05,WEIGHT,57.2,kg
TEST-001-001,TEST-001-001-CN003131,10,W12,84,2025-04-10,WEIGHT,58.5,kg
TEST-001-001,TEST-001-001-CN001133,10,W12,84,2025-07-14,WEIGHT,72.7,kg
TEST-001-001,TEST-001-001-CN006134,10,W12,84,2025-07-31,WEIGHT,87.3,kg
TEST-001-001,TEST-001-001-CN005136,10,W12,84,2025-05-17,WEIGHT,69.6,kg
TEST-001-001,TEST-001-001-CN002137,10,W12,84,2025-03-29,WEIGHT,66.3,kg
TEST-001-001,TEST-001-001-CN003138,8,W12,84,2025-06-03,WEIGHT,86.0,kg
TEST-001-001,TEST-001-001-CN008139,10,W12,84,2025-05-05,WEIGHT,67.2,kg
TEST-001-001,TEST-001-001-CN006140,10,W12,84,2025-04-05,WEIGHT,74.7,kg
TEST-001-001,TEST-001-001-CN003141,9,W12,84,2025-08-10,WEIGHT,70.6,kg
TEST-001-001,TEST-001-001-CN006142,10,W12,84,2025-07-30,WEIGHT,59.3,kg
TEST-001-001,TEST-001-001-CN004143,9,W12,84,2025-08-28,WEIGHT,56.3,kg
TEST-001-001,TEST-001-001-CN006144,10,W12,84,2025-04-22,WEIGHT,65.3,kg
TEST-001-001,TEST-001-001-CN009145,10,W12,84,2025-06-19,WEIGHT,72.1,kg
TEST-001-001,TEST-001-001-CN009146,10,W12,84,2025-08-18,WEIGHT,73.3,kg
TEST-001-001,TEST-001-001-CN003147,9,W12,84,2025-07-05,WEIGHT,70.8,kg
TEST-001-001,TEST-001-001-CN009148,8,W12,84,2025-07-19,WEIGHT,56.7,kg
TEST-001-001,TEST-001-001-CN004149,10,W12,84,2025-04-27,WEIGHT,81.3,kg
TEST-001-001,TEST-001-001-CN008150,10,W12,84,2025-04-27,WEIGHT,86.3,kg
TEST-001-001,TEST-001-001-CN010151,10,W12,84,2025-07-14,WEIGHT,63.2,kg
TEST-001-001,TEST-001-001-CN004152,10,W12,84,2025-08-11,WEIGHT,35.4,kg
TEST-001-001,TEST-001-001-CN007153,8,W12,84,2025-04-25,WEIGHT,63.0,kg
TEST-001-001,TEST-001-001-CN002154,8,W12,84,2025-05-30,WEIGHT,55.2,kg
TEST-001-001,TEST-001-001-CN008155,10,W12,84,2025-06-02,WEIGHT,64.7,kg
TEST-001-001,TEST-001-001-CN003156,10,W12,84,2025-05-05,WEIGHT,67.3,kg
TEST-001-001,TEST-001-001-CN002157,10,W12,84,2025-05-19,WEIGHT,69.3,kg
TEST-001-001,TEST-001-001-CN005158,10,W12,84,2025-04-10,WEIGHT,70.7,kg
TEST-001-001,TEST-001-001-CN005159,10,W12,84,2025-07-29,WEIGHT,68.3,kg
TEST-001-001,TEST-001-001-CN009160,10,W12,84,2025-03-31,WEIGHT,54.7,kg
TEST-001-001,TEST-001-001-CN001161,10,W12,84,2025-05-18,WEIGHT,40.6,kg
TEST-001-001,TEST-001-001-CN004163,10,W12,84,2025-04-02,WEIGHT,76.7,kg
TEST-001-001,TEST-001-001-CN002164,10,W12,84,2025-08-11,WEIGHT,72.7,kg
TEST-001-001,TEST-001-001-CN007165,10,W12,84,2025-04-30,WEIGHT,59.3,kg
TEST-001-001,TEST-001-001-CN006166,10,W12,84,2025-06-29,WEIGHT,69.9,kg
TEST-001-001,TEST-001-001-CN008167,10,W12,84,2025-06-13,WEIGHT,56.1,kg
TEST-001-001,TEST-001-001-CN002168,9,W12,84,2025-04-13,WEIGHT,52.2,kg
TEST-001-001,TEST-001-001-CN006169,10,W12,84,2025-05-09,WEIGHT,55.3,kg
TEST-001-001,TEST-001-001-CN003170,10,W12,84,2025-06-29,WEIGHT,63.9,kg
TEST-001-001,TEST-001-001-CN004171,10,W12,84,2025-05-28,WEIGHT,64.6,kg
TEST-001-001,TEST-001-001-CN002172,8,W12,84,2025-03-28,WEIGHT,88.1,kg
TEST-001-001,TEST-001-001-CN003173,10,W12,84,2025-08-08,WEIGHT,61.1,kg
TEST-001-001,TEST-001-001-CN010174,10,W12,84,2025-07-11,WEIGHT,72.6,kg
TEST-001-001,TEST-001-001-CN005175,10,W12,84,2025-08-09,WEIGHT,56.8,kg
TEST-001-001,TEST-001-001-CN008176,10,W12,84,2025-04-29,WEIGHT,87.5,kg
TEST-001-001,TEST-001-001-CN002177,10,W12,84,2025-08-13,WEIGHT,86.2,kg
TEST-001-001,TEST-001-001-CN001178,10,W12,84,2025-07-08,WEIGHT,75.2,kg
TEST-001-001,TEST-001-001-CN009179,9,W12,84,2025-08-27,WEIGHT,64.6,kg
TEST-001-001,TEST-001-001-CN008180,10,W12,84,2025-05-13,WEIGHT,71.7,kg
TEST-001-001,TEST-001-001-CN005181,10,W12,84,2025-07-29,WEIGHT,,kg
TEST-001-001,TEST-001-001-CN006182,9,W12,84,2025-03-31,WEIGHT,35.4,kg
TEST-001-001,TEST-001-001-CN006183,10,W12,84,2025-06-20,WEIGHT,59.0,kg
TEST-001-001,TEST-001-001-CN009184,10,W12,84,2025-04-26,WEIGHT,66.2,kg
TEST-001-001,TEST-001-001-CN002185,10,W12,84,2025-06-18,WEIGHT,56.9,kg
TEST-001-001,TEST-001-001-CN009186,10,W12,84,2025-09-01,WEIGHT,65.1,kg
TEST-001-001,TEST-001-001-CN001187,8,W12,84,2025-07-14,WEIGHT,49.0,kg
TEST-001-001,TEST-001-001-CN004188,10,W12,84,2025-06-06,WEIGHT,74.0,kg
TEST-001-001,TEST-001-001-CN010189,10,W12,84,2025-05-25,WEIGHT,90.8,kg
TEST-001-001,TEST-001-001-CN005190,10,W12,84,2025-06-24,WEIGHT,55.5,kg
TEST-001-001,TEST-001-001-CN004192,10,W12,84,2025-05-07,WEIGHT,67.4,kg
TEST-001-001,TEST-001-001-CN004193,10,W12,84,2025-05-30,WEIGHT,72.7,kg
TEST-001-001,TEST-001-001-CN007194,8,W12,84,2025-05-07,WEIGHT,55.3,kg
TEST-001-001,TEST-001-001-CN004195,8,W12,84,2025-08-24,WEIGHT,59.7,kg
TEST-001-001,TEST-001-001-CN002196,9,W12,84,2025-06-21,WEIGHT,63.2,kg
TEST-001-001,TEST-001-001-CN008198,10,W12,84,2025-05-20,WEIGHT,59.0,kg
TEST-001-001,TEST-001-001-CN002199,10,W12,84,2025-04-29,WEIGHT,54.1,kg
TEST-001-001,TEST-001-001-CN001001,11,W18,126,2025-05-30,WEIGHT,86.9,kg
TEST-001-001,TEST-001-001-CN004002,11,W18,126,2025-06-13,WEIGHT,73.6,kg
TEST-001-001,TEST-001-001-CN003003,11,W18,126,2025-08-07,WEIGHT,67.3,kg
TEST-001-001,TEST-001-001-CN008004,11,W18,126,2025-10-10,WEIGHT,75.4,kg
TEST-001-001,TEST-001-001-CN006005,9,W18,126,2025-08-02,WEIGHT,72.5,kg
TEST-001-001,TEST-001-001-CN009006,9,W18,126,2025-05-20,WEIGHT,57.4,kg
TEST-001-001,TEST-001-001-CN002007,11,W18,126,2025-10-02,WEIGHT,57.0,kg
TEST-001-001,TEST-001-001-CN002008,11,W18,126,2025-06-01,WEIGHT,62.6,kg
TEST-001-001,TEST-001-001-CN004009,11,W18,126,2025-10-03,WEIGHT,68.0,kg
TEST-001-001,TEST-001-001-CN009010,11,W18,126,2025-08-01,WEIGHT,86.5,kg
TEST-001-001,TEST-001-001-CN002011,11,W18,126,2025-09-06,WEIGHT,101.2,kg
TEST-001-001,TEST-001-001-CN001012,11,W18,126,2025-06-24,WEIGHT,58.7,kg
TEST-001-001,TEST-001-001-CN005013,11,W18,126,2025-09-27,WEIGHT,64.1,kg
TEST-001-001,TEST-001-001-CN009015,10,W18,126,2025-09-02,WEIGHT,64.4,kg
TEST-001-001,TEST-001-001-CN009016,11,W18,126,2025-06-27,WEIGHT,62.9,kg
TEST-001-001,TEST-001-001-CN010017,11,W18,126,2025-07-23,WEIGHT,61.0,kg
TEST-001-001,TEST-001-001-CN003018,11,W18,126,2025-07-08,WEIGHT,67.0,kg
TEST-001-001,TEST-001-001-CN008019,10,W18,126,2025-09-04,WEIGHT,74.4,kg
TEST-001-001,TEST-001-001-CN010020,11,W18,126,2025-07-10,WEIGHT,59.6,kg
TEST-001-001,TEST-001-001-CN010022,10,W18,126,2025-07-31,WEIGHT,77.7,kg
TEST-001-001,TEST-001-001-CN010023,11,W18,126,2025-05-30,WEIGHT,52.2,kg
TEST-001-001,TEST-001-001-CN005024,11,W18,126,2025-06-26,WEIGHT,84.2,kg
TEST-001-001,TEST-001-001-CN009025,11,W18,126,2025-07-03,WEIGHT,60.6,kg
TEST-001-001,TEST-001-001-CN004026,11,W18,126,2025-07-21,WEIGHT,,kg
TEST-001-001,TEST-001-001-CN006027,11,W18,126,2025-05-21,WEIGHT,67.2,kg
TEST-001-001,TEST-001-001-CN005028,10,W18,126,2025-08-14,WEIGHT,68.0,kg
TEST-001-001,TEST-001-001-CN010029,11,W18,126,2025-05-15,WEIGHT,64.9,kg
TEST-001-001,TEST-001-001-CN007030,11,W18,126,2025-06-25,WEIGHT,84.4,kg
TEST-001-001,TEST-001-001-CN002031,11,W18,126,2025-05-22,WEIGHT,88.6,kg
TEST-001-001,TEST-001-001-CN002032,11,W18,126,2025-08-07,WEIGHT,,kg
TEST-001-001,TEST-001-001-CN004033,11,W18,126,2025-07-01,WEIGHT,58.5,kg
TEST-001-001,TEST-001-001-CN005034,11,W18,126,2025-07-10,WEIGHT,69.1,kg
TEST-001-001,TEST-001-001-CN005035,11,W18,126,2025-07-31,WEIGHT,67.4,kg
TEST-001-001,TEST-001-001-CN005036,11,W18,126,2025-06-17,WEIGHT,72.7,kg
TEST-001-001,TEST-001-001-CN007037,9,W18,126,2025-08-26,WEIGHT,72.4,kg
TEST-001-001,TEST-001-001-CN009038,11,W18,126,2025-08-29,WEIGHT,66.4,kg
TEST-001-001,TEST-001-001-CN002039,11,W18,126,2025-06-15,WEIGHT,72.9,kg
TEST-001-001,TEST-001-001-CN003040,11,W18,126,2025-05-31,WEIGHT,59.1,kg
TEST-001-001,TEST-001-001-CN008041,11,W18,126,2025-06-22,WEIGHT,58.7,kg
TEST-001-001,TEST-001-001-CN004042,11,W18,126,2025-09-17,WEIGHT,68.5,kg
TEST-001-001,TEST-001-001-CN006043,11,W18,126,2025-05-09,WEIGHT,82.3,kg
TEST-001-001,TEST-001-001-CN003044,11,W18,126,2025-07-24,WEIGHT,49.1,kg
TEST-001-001,TEST-001-001-CN006045,11,W18,126,2025-05-26,WEIGHT,81.8,kg
TEST-001-001,TEST-001-001-CN005046,11,W18,126,2025-05-29,WEIGHT,52.7,kg
TEST-001-001,TEST-001-001-CN006047,11,W18,126,2025-08-17,WEIGHT,78.0,kg
TEST-001-001,TEST-001-001-CN006048,11,W18,126,2025-05-22,WEIGHT,60.2,kg
TEST-001-001,TEST-001-001-CN001049,11,W18,126,2025-06-26,WEIGHT,88.7,kg
TEST-001-001,TEST-001-001-CN005051,11,W18,126,2025-09-09,WEIGHT,74.2,kg
TEST-001-001,TEST-001-001-CN005052,10,W18,126,2025-05-28,WEIGHT,69.0,kg
TEST-001-001,TEST-001-001-CN006053,11,W18,126,2025-07-04,WEIGHT,68.3,kg
TEST-001-001,TEST-001-001-CN002054,9,W18,126,2025-05-14,WEIGHT,48.1,kg
TEST-001-001,TEST-001-001-CN006055,11,W18,126,2025-08-10,WEIGHT,91.5,kg
TEST-001-001,TEST-001-001-CN008056,11,W18,126,2025-07-01,WEIGHT,59.2,kg
TEST-001-001,TEST-001-001-CN004057,11,W18,126,2025-09-16,WEIGHT,60.0,kg
TEST-001-001,TEST-001-001-CN007058,11,W18,126,2025-08-29,WEIGHT,65.9,kg
TEST-001-001,TEST-001-001-CN009059,11,W18,126,2025-08-23,WEIGHT,65.9,kg
TEST-001-001,TEST-001-001-CN009060,11,W18,126,2025-05-06,WEIGHT,43.3,kg
TEST-001-001,TEST-001-001-CN006061,7,W18,126,2025-06-02,WEIGHT,67.8,kg
TEST-001-001,TEST-001-001-CN002062,11,W18,126,2025-06-01,WEIGHT,65.4,kg
TEST-001-001,TEST-001-001-CN009065,11,W18,126,2025-08-06,WEIGHT,67.5,kg
TEST-001-001,TEST-001-001-CN010066,11,W18,126,2025-05-17,WEIGHT,59.3,kg
TEST-001-001,TEST-001-001-CN002068,11,W18,126,2025-08-10,WEIGHT,58.3,kg
TEST-001-001,TEST-001-001-CN003069,11,W18,126,2025-05-06,WEIGHT,77.3,kg
TEST-001-001,TEST-001-001-CN003070,11,W18,126,2025-06-25,WEIGHT,51.0,kg
TEST-001-001,TEST-001-001-CN005071,10,W18,126,2025-05-28,WEIGHT,75.4,kg
TEST-001-001,TEST-001-001-CN006072,11,W18,126,2025-05-22,WEIGHT,64.4,kg
TEST-001-001,TEST-001-001-CN001074,9,W18,126,2025-06-01,WEIGHT,67.5,kg
TEST-001-001,TEST-001-001-CN003075,11,W18,126,2025-07-28,WEIGHT,77.8,kg
TEST-001-001,TEST-001-001-CN003076,11,W18,126,2025-06-25,WEIGHT,57.3,kg
TEST-001-001,TEST-001-001-CN008077,11,W18,126,2025-06-01,WEIGHT,66.9,kg
TEST-001-001,TEST-001-001-CN005078,9,W18,126,2025-07-23,WEIGHT,52.4,kg
TEST-001-001,TEST-001-001-CN005079,11,W18,126,2025-07-15,WEIGHT,69.3,kg
TEST-001-001,TEST-001-001-CN003080,11,W18,126,2025-08-03,WEIGHT,52.5,kg
TEST-001-001,TEST-001-001-CN001081,11,W18,126,2025-08-22,WEIGHT,,kg
TEST-001-001,TEST-001-001-CN003082,9,W18,126,2025-07-04,WEIGHT,46.7,kg
TEST-001-001,TEST-001-001-CN006084,11,W18,126,2025-05-30,WEIGHT,66.4,kg
TEST-001-001,TEST-001-001-CN010085,11,W18,126,2025-06-02,WEIGHT,79.0,kg
TEST-001-001,TEST-001-001-CN001087,11,W18,126,2025-09-12,WEIGHT,82.8,kg
TEST-001-001,TEST-001-001-CN006088,11,W18,126,2025-09-05,WEIGHT,77.2,kg
TEST-001-001,TEST-001-001-CN009089,11,W18,126,2025-06-06,WEIGHT,86.1,kg
TEST-001-001,TEST-001-001-CN009090,11,W18,126,2025-08-24,WEIGHT,67.0,kg
TEST-001-001,TEST-001-001-CN005091,11,W18,126,2025-09-17,WEIGHT,51.8,kg
TEST-001-001,TEST-001-001-CN001092,11,W18,126,2025-07-24,WEIGHT,75.8,kg
TEST-001-001,TEST-001-001-CN006093,11,W18,126,2025-06-25,WEIGHT,62.4,kg
TEST-001-001,TEST-001-001-CN004094,11,W18,126,2025-08-06,WEIGHT,66.0,kg
TEST-001-001,TEST-001-001-CN007095,8,W18,126,2025-05-10,WEIGHT,73.9,kg
TEST-001-001,TEST-001-001-CN004096,11,W18,126,2025-07-23,WEIGHT,60.9,kg
TEST-001-001,TEST-001-001-CN002097,11,W18,126,2025-05-30,WEIGHT,89.9,kg
TEST-001-001,TEST-001-001-CN004098,11,W18,126,2025-10-06,WEIGHT,60.9,kg
TEST-001-001,TEST-001-001-CN009099,9,W18,126,2025-06-23,WEIGHT,63.8,kg
TEST-001-001,TEST-001-001-CN006100,11,W18,126,2025-10-07,WEIGHT,76.7,kg
TEST-001-001,TEST-001-001-CN009101,11,W18,126,2025-08-15,WEIGHT,52.6,kg
TEST-001-001,TEST-001-001-CN010102,11,W18,126,2025-09-20,WEIGHT,66.9,kg
TEST-001-001,TEST-001-001-CN009104,10,W18,126,2025-06-06,WEIGHT,68.7,kg
TEST-001-001,TEST-001-001-CN004105,11,W18,126,2025-08-04,WEIGHT,58.6,kg
TEST-001-001,TEST-001-001-CN005107,11,W18,126,2025-09-04,WEIGHT,69.8,kg
TEST-001-001,TEST-001-001-CN007108,11,W18,126,2025-10-11,WEIGHT,57.8,kg
TEST-001-001,TEST-001-001-CN009110,11,W18,126,2025-08-14,WEIGHT,61.4,kg
TEST-001-001,TEST-001-001-CN010111,11,W18,126,2025-07-16,WEIGHT,51.4,kg
TEST-001-001,TEST-001-001-CN005112,11,W18,126,2025-07-02,WEIGHT,77.9,kg
TEST-001-001,TEST-001-001-CN010113,11,W18,126,2025-07-07,WEIGHT,78.1,kg
TEST-001-001,TEST-001-001-CN003115,11,W18,126,2025-09-21,WEIGHT,64.5,kg
TEST-001-001,TEST-001-001-CN010116,11,W18,126,2025-05-22,WEIGHT,57.8,kg
TEST-001-001,TEST-001-001-CN006117,11,W18,126,2025-10-01,WEIGHT,78.7,kg
TEST-001-001,TEST-001-001-CN002118,11,W18,126,2025-08-23,WEIGHT,70.9,kg
TEST-001-001,TEST-001-001-CN008120,11,W18,126,2025-06-17,WEIGHT,74.6,kg
TEST-001-001,TEST-001-001-CN007121,11,W18,126,2025-08-23,WEIGHT,72.8,kg
TEST-001-001,TEST-001-001-CN009122,10,W18,126,2025-06-21,WEIGHT,73.0,kg
TEST-001-001,TEST-001-001-CN004123,11,W18,126,2025-05-20,WEIGHT,55.7,kg
TEST-001-001,TEST-001-001-CN005124,11,W18,126,2025-05-24,WEIGHT,64.1,kg
TEST-001-001,TEST-001-001-CN009125,11,W18,126,2025-06-11,WEIGHT,88.9,kg
TEST-001-001,TEST-001-001-CN005126,11,W18,126,2025-06-29,WEIGHT,68.3,kg
TEST-001-001,TEST-001-001-CN001127,11,W18,126,2025-08-11,WEIGHT,63.4,kg
TEST-001-001,TEST-001-001-CN007129,11,W18,126,2025-08-01,WEIGHT,70.3,kg
TEST-001-001,TEST-001-001-CN010130,11,W18,126,2025-06-16,WEIGHT,73.4,kg
TEST-001-001,TEST-001-001-CN003131,11,W18,126,2025-05-21,WEIGHT,91.1,kg
TEST-001-001,TEST-001-001-CN001133,11,W18,126,2025-08-25,WEIGHT,46.6,kg
TEST-001-001,TEST-001-001-CN006134,11,W18,126,2025-09-07,WEIGHT,49.1,kg
TEST-001-001,TEST-001-001-CN005136,11,W18,126,2025-06-23,WEIGHT,66.8,kg
TEST-001-001,TEST-001-001-CN002137,11,W18,126,2025-05-09,WEIGHT,73.2,kg
TEST-001-001,TEST-001-001-CN003138,9,W18,126,2025-07-16,WEIGHT,55.3,kg
TEST-001-001,TEST-001-001-CN008139,11,W18,126,2025-06-19,WEIGHT,54.6,kg
TEST-001-001,TEST-001-001-CN006140,11,W18,126,2025-05-15,WEIGHT,79.9,kg
TEST-001-001,TEST-001-001-CN006142,11,W18,126,2025-09-14,WEIGHT,81.3,kg
TEST-001-001,TEST-001-001-CN004143,10,W18,126,2025-10-05,WEIGHT,46.8,kg
TEST-001-001,TEST-001-001-CN006144,11,W18,126,2025-06-02,WEIGHT,67.8,kg
TEST-001-001,TEST-001-001-CN009145,11,W18,126,2025-08-05,WEIGHT,60.2,kg
TEST-001-001,TEST-001-001-CN009146,11,W18,126,2025-10-01,WEIGHT,63.1,kg
TEST-001-001,TEST-001-001-CN003147,10,W18,126,2025-08-12,WEIGHT,63.5,kg
TEST-001-001,TEST-001-001-CN009148,9,W18,126,2025-08-29,WEIGHT,64.9,kg
TEST-001-001,TEST-001-001-CN004149,11,W18,126,2025-06-07,WEIGHT,73.9,kg
TEST-001-001,TEST-001-001-CN008150,11,W18,126,2025-06-09,WEIGHT,61.8,kg
TEST-001-001,TEST-001-001-CN010151,11,W18,126,2025-08-23,WEIGHT,60.8,kg
TEST-001-001,TEST-001-001-CN004152,11,W18,126,2025-09-20,WEIGHT,78.6,kg
TEST-001-001,TEST-001-001-CN007153,9,W18,126,2025-06-09,WEIGHT,42.5,kg
TEST-001-001,TEST-001-001-CN002154,9,W18,126,2025-07-15,WEIGHT,64.2,kg
TEST-001-001,TEST-001-001-CN008155,11,W18,126,2025-07-18,WEIGHT,66.2,kg
TEST-001-001,TEST-001-001-CN003156,11,W18,126,2025-06-20,WEIGHT,77.6,kg
TEST-001-001,TEST-001-001-CN002157,11,W18,126,2025-06-30,WEIGHT,78.3,kg
TEST-001-001,TEST-001-001-CN005158,11,W18,126,2025-05-24,WEIGHT,63.5,kg
TEST-001-001,TEST-001-001-CN005159,11,W18,126,2025-09-09,WEIGHT,46.3,kg
TEST-001-001,TEST-001-001-CN009160,11,W18,126,2025-05-11,WEIGHT,67.7,kg
TEST-001-001,TEST-001-001-CN001161,11,W18,126,2025-06-26,WEIGHT,71.0,kg
TEST-001-001,TEST-001-001-CN004163,11,W18,126,2025-05-16,WEIGHT,71.1,kg
TEST-001-001,TEST-001-001-CN002164,11,W18,126,2025-09-22,WEIGHT,54.1,kg
TEST-001-001,TEST-001-001-CN007165,11,W18,126,2025-06-11,WEIGHT,72.7,kg
TEST-001-001,TEST-001-001-CN006166,11,W18,126,2025-08-10,WEIGHT,66.7,kg
TEST-001-001,TEST-001-001-CN008167,11,W18,126,2025-07-25,WEIGHT,81.2,kg
TEST-001-001,TEST-001-001-CN006169,11,W18,126,2025-06-26,WEIGHT,64.0,kg
TEST-001-001,TEST-001-001-CN003170,11,W18,126,2025-08-08,WEIGHT,62.4,kg
TEST-001-001,TEST-001-001-CN004171,11,W18,126,2025-07-14,WEIGHT,59.1,kg
TEST-001-001,TEST-001-001-CN002172,9,W18,126,2025-05-11,WEIGHT,70.5,kg
TEST-001-001,TEST-001-001-CN003173,11,W18,126,2025-09-21,WEIGHT,59.3,kg
TEST-001-001,TEST-001-001-CN010174,11,W18,126,2025-08-22,WEIGHT,69.3,kg
TEST-001-001,TEST-001-001-CN005175,11,W18,126,2025-09-24,WEIGHT,79.9,kg
TEST-001-001,TEST-001-001-CN008176,11,W18,126,2025-06-10,WEIGHT,62.6,kg
TEST-001-001,TEST-001-001-CN002177,11,W18,126,2025-09-24,WEIGHT,51.5,kg
TEST-001-001,TEST-001-001-CN001178,11,W18,126,2025-08-19,WEIGHT,83.1,kg
TEST-001-001,TEST-001-001-CN008180,11,W18,126,2025-06-27,WEIGHT,62.4,kg
TEST-001-001,TEST-001-001-CN005181,11,W18,126,2025-09-12,WEIGHT,61.2,kg
TEST-001-001,TEST-001-001-CN006182,10,W18,126,2025-05-17,WEIGHT,76.6,kg
TEST-001-001,TEST-001-001-CN006183,11,W18,126,2025-07-30,WEIGHT,63.4,kg
TEST-001-001,TEST-001-001-CN009184,11,W18,126,2025-06-04,WEIGHT,64.9,kg
TEST-001-001,TEST-001-001-CN002185,11,W18,126,2025-08-02,WEIGHT,51.9,kg
TEST-001-001,TEST-001-001-CN009186,11,W18,126,2025-10-11,WEIGHT,74.3,kg
TEST-001-001,TEST-001-001-CN001187,9,W18,126,2025-08-26,WEIGHT,54.2,kg
TEST-001-001,TEST-001-001-CN004188,11,W18,126,2025-07-20,WEIGHT,69.1,kg
TEST-001-001,TEST-001-001-CN010189,11,W18,126,2025-07-09,WEIGHT,55.9,kg
TEST-001-001,TEST-001-001-CN005190,11,W18,126,2025-08-07,WEIGHT,82.9,kg
TEST-001-001,TEST-001-001-CN005191,9,W18,126,2025-08-13,WEIGHT,76.4,kg
TEST-001-001,TEST-001-001-CN004192,11,W18,126,2025-06-17,WEIGHT,65.1,kg
TEST-001-001,TEST-001-001-CN004193,11,W18,126,2025-07-12,WEIGHT,66.1,kg
TEST-001-001,TEST-001-001-CN007194,9,W18,126,2025-06-19,WEIGHT,76.1,kg
TEST-001-001,TEST-001-001-CN004195,9,W18,126,2025-10-08,WEIGHT,,kg
TEST-001-001,TEST-001-001-CN008198,11,W18,126,2025-07-05,WEIGHT,,kg
TEST-001-001,TEST-001-001-CN002199,11,W18,126,2025-06-08,WEIGHT,64.7,kg
TEST-001-001,TEST-001-001-CN001001,12,W24,168,2025-07-08,WEIGHT,53.1,kg
TEST-001-001,TEST-001-001-CN004002,12,W24,168,2025-07-24,WEIGHT,63.6,kg
TEST-001-001,TEST-001-001-CN003003,12,W24,168,2025-09-20,WEIGHT,50.9,kg
TEST-001-001,TEST-001-001-CN008004,12,W24,168,2025-11-25,WEIGHT,82.4,kg
TEST-001-001,TEST-001-001-CN006005,10,W24,168,2025-09-12,WEIGHT,64.6,kg
TEST-001-001,TEST-001-001-CN009006,10,W24,168,2025-07-01,WEIGHT,65.0,kg
TEST-001-001,TEST-001-001-CN002007,12,W24,168,2025-11-10,WEIGHT,76.1,kg
TEST-001-001,TEST-001-001-CN002008,12,W24,168,2025-07-14,WEIGHT,69.0,kg
TEST-001-001,TEST-001-001-CN004009,12,W24,168,2025-11-13,WEIGHT,51.5,kg
TEST-001-001,TEST-001-001-CN009010,12,W24,168,2025-09-10,WEIGHT,70.5,kg
TEST-001-001,TEST-001-001-CN002011,12,W24,168,2025-10-18,WEIGHT,85.5,kg
TEST-001-001,TEST-001-001-CN001012,12,W24,168,2025-07-31,WEIGHT,61.9,kg
TEST-001-001,TEST-001-001-CN005013,12,W24,168,2025-11-12,WEIGHT,54.0,kg
TEST-001-001,TEST-001-001-CN009016,12,W24,168,2025-08-08,WEIGHT,67.1,kg
TEST-001-001,TEST-001-001-CN010017,12,W24,168,2025-09-02,WEIGHT,72.7,kg
TEST-001-001,TEST-001-001-CN003018,12,W24,168,2025-08-20,WEIGHT,51.6,kg
TEST-001-001,TEST-001-001-CN010020,12,W24,168,2025-08-17,WEIGHT,47.1,kg
TEST-001-001,TEST-001-001-CN010023,12,W24,168,2025-07-09,WEIGHT,69.8,kg
TEST-001-001,TEST-001-001-CN005024,12,W24,168,2025-08-04,WEIGHT,53.2,kg
TEST-001-001,TEST-001-001-CN009025,12,W24,168,2025-08-14,WEIGHT,70.3,kg
TEST-001-001,TEST-001-001-CN004026,12,W24,168,2025-08-31,WEIGHT,65.6,kg
TEST-001-001,TEST-001-001-CN006027,12,W24,168,2025-07-01,WEIGHT,60.2,kg
TEST-001-001,TEST-001-001-CN010029,12,W24,168,2025-06-23,WEIGHT,52.7,kg
TEST-001-001,TEST-001-001-CN007030,12,W24,168,2025-08-09,WEIGHT,54.2,kg
TEST-001-001,TEST-001-001-CN002031,12,W24,168,2025-07-09,WEIGHT,41.5,kg
TEST-001-001,TEST-001-001-CN002032,12,W24,168,2025-09-17,WEIGHT,72.0,kg
TEST-001-001,TEST-001-001-CN004033,12,W24,168,2025-08-11,WEIGHT,68.0,kg
TEST-001-001,TEST-001-001-CN005034,12,W24,168,2025-08-20,WEIGHT,69.1,kg
TEST-001-001,TEST-001-001-CN005035,12,W24,168,2025-09-09,WEIGHT,50.2,kg
TEST-001-001,TEST-001-001-CN005036,12,W24,168,2025-07-29,WEIGHT,71.5,kg
TEST-001-001,TEST-001-001-CN007037,10,W24,168,2025-10-08,WEIGHT,65.0,kg
TEST-001-001,TEST-001-001-CN009038,12,W24,168,2025-10-11,WEIGHT,57.7,kg
TEST-001-001,TEST-001-001-CN002039,12,W24,168,2025-07-26,WEIGHT,64.6,kg
TEST-001-001,TEST-001-001-CN003040,12,W24,168,2025-07-09,WEIGHT,69.9,kg
TEST-001-001,TEST-001-001-CN008041,12,W24,168,2025-08-04,WEIGHT,78.9,kg
TEST-001-001,TEST-001-001-CN004042,12,W24,168,2025-10-26,WEIGHT,63.5,kg
TEST-001-001,TEST-001-001-CN006043,12,W24,168,2025-06-18,WEIGHT,61.0,kg
TEST-001-001,TEST-001-001-CN003044,12,W24,168,2025-09-09,WEIGHT,44.5,kg
TEST-001-001,TEST-001-001-CN006045,12,W24,168,2025-07-03,WEIGHT,82.8,kg
TEST-001-001,TEST-001-001-CN005046,12,W24,168,2025-07-10,WEIGHT,74.9,kg
TEST-001-001,TEST-001-001-CN006047,12,W24,168,2025-09-29,WEIGHT,76.2,kg
TEST-001-001,TEST-001-001-CN006048,12,W24,168,2025-07-05,WEIGHT,67.1,kg
TEST-001-001,TEST-001-001-CN001049,12,W24,168,2025-08-07,WEIGHT,56.4,kg
TEST-001-001,TEST-001-001-CN005051,12,W24,168,2025-10-24,WEIGHT,69.7,kg
TEST-001-001,TEST-001-001-CN006053,12,W24,168,2025-08-18,WEIGHT,69.7,kg
TEST-001-001,TEST-001-001-CN002054,10,W24,168,2025-06-25,WEIGHT,64.8,kg
TEST-001-001,TEST-001-001-CN006055,12,W24,168,2025-09-20,WEIGHT,63.4,kg
TEST-001-001,TEST-001-001-CN008056,12,W24,168,2025-08-10,WEIGHT,81.1,kg
TEST-001-001,TEST-001-001-CN004057,12,W24,168,2025-10-28,WEIGHT,54.0,kg
TEST-001-001,TEST-001-001-CN007058,12,W24,168,2025-10-07,WEIGHT,87.4,kg
TEST-001-001,TEST-001-001-CN009059,12,W24,168,2025-10-09,WEIGHT,55.7,kg
TEST-001-001,TEST-001-001-CN009060,12,W24,168,2025-06-19,WEIGHT,60.2,kg
TEST-001-001,TEST-001-001-CN006061,8,W24,168,2025-07-18,WEIGHT,70.6,kg
TEST-001-001,TEST-001-001-CN002062,12,W24,168,2025-07-17,WEIGHT,72.9,kg
TEST-001-001,TEST-001-001-CN009064,10,W24,168,2025-08-23,WEIGHT,74.6,kg
TEST-001-001,TEST-001-001-CN009065,12,W24,168,2025-09-16,WEIGHT,73.0,kg
TEST-001-001,TEST-001-001-CN010066,12,W24,168,2025-06-27,WEIGHT,74.9,kg
TEST-001-001,TEST-001-001-CN002068,12,W24,168,2025-09-20,WEIGHT,76.0,kg
TEST-001-001,TEST-001-001-CN003069,12,W24,168,2025-06-17,WEIGHT,66.2,kg
TEST-001-001,TEST-001-001-CN003070,12,W24,168,2025-08-09,WEIGHT,68.4,kg
TEST-001-001,TEST-001-001-CN006072,12,W24,168,2025-07-05,WEIGHT,58.6,kg
TEST-001-001,TEST-001-001-CN001074,10,W24,168,2025-07-12,WEIGHT,51.8,kg
TEST-001-001,TEST-001-001-CN003075,12,W24,168,2025-09-03,WEIGHT,85.8,kg
TEST-001-001,TEST-001-001-CN003076,12,W24,168,2025-08-05,WEIGHT,50.5,kg
TEST-001-001,TEST-001-001-CN008077,12,W24,168,2025-07-13,WEIGHT,71.6,kg
TEST-001-001,TEST-001-001-CN005078,10,W24,168,2025-09-02,WEIGHT,50.4,kg
TEST-001-001,TEST-001-001-CN005079,12,W24,168,2025-08-22,WEIGHT,69.9,kg
TEST-001-001,TEST-001-001-CN003080,12,W24,168,2025-09-18,WEIGHT,52.6,kg
TEST-001-001,TEST-001-001-CN001081,12,W24,168,2025-10-02,WEIGHT,77.1,kg
TEST-001-001,TEST-001-001-CN003082,10,W24,168,2025-08-14,WEIGHT,43.7,kg
TEST-001-001,TEST-001-001-CN006084,12,W24,168,2025-07-07,WEIGHT,71.8,kg
TEST-001-001,TEST-001-001-CN010085,12,W24,168,2025-07-15,WEIGHT,75.1,kg
TEST-001-001,TEST-001-001-CN001087,12,W24,168,2025-10-19,WEIGHT,72.7,kg
TEST-001-001,TEST-001-001-CN006088,12,W24,168,2025-10-19,WEIGHT,75.1,kg
TEST-001-001,TEST-001-001-CN009089,12,W24,168,2025-07-18,WEIGHT,43.5,kg
TEST-001-001,TEST-001-001-CN009090,12,W24,168,2025-10-06,WEIGHT,82.7,kg
TEST-001-001,TEST-001-001-CN005091,12,W24,168,2025-10-25,WEIGHT,66.6,kg
TEST-001-001,TEST-001-001-CN001092,12,W24,168,2025-09-04,WEIGHT,67.2,kg
TEST-001-001,TEST-001-001-CN006093,12,W24,168,2025-08-03,WEIGHT,89.0,kg
TEST-001-001,TEST-001-001-CN004094,12,W24,168,2025-09-15,WEIGHT,81.0,kg
TEST-001-001,TEST-001-001-CN004096,12,W24,168,2025-09-01,WEIGHT,69.8,kg
TEST-001-001,TEST-001-001-CN002097,12,W24,168,2025-07-06,WEIGHT,58.2,kg
TEST-001-001,TEST-001-001-CN004098,12,W24,168,2025-11-22,WEIGHT,83.4,kg
TEST-001-001,TEST-001-001-CN009099,10,W24,168,2025-08-05,WEIGHT,83.8,kg
TEST-001-001,TEST-001-001-CN006100,12,W24,168,2025-11-14,WEIGHT,35.8,kg
TEST-001-001,TEST-001-001-CN009101,12,W24,168,2025-09-25,WEIGHT,,kg
TEST-001-001,TEST-001-001-CN010102,12,W24,168,2025-11-06,WEIGHT,53.3,kg
TEST-001-001,TEST-001-001-CN004105,12,W24,168,2025-09-16,WEIGHT,54.1,kg
TEST-001-001,TEST-001-001-CN010106,10,W24,168,2025-06-23,WEIGHT,72.5,kg
TEST-001-001,TEST-001-001-CN005107,12,W24,168,2025-10-15,WEIGHT,62.7,kg
TEST-001-001,TEST-001-001-CN007108,12,W24,168,2025-11-23,WEIGHT,85.3,kg
TEST-001-001,TEST-001-001-CN009110,12,W24,168,2025-09-27,WEIGHT,53.2,kg
TEST-001-001,TEST-001-001-CN010111,12,W24,168,2025-08-26,WEIGHT,74.5,kg
TEST-001-001,TEST-001-001-CN005112,12,W24,168,2025-08-11,WEIGHT,94.0,kg
TEST-001-001,TEST-001-001-CN010113,12,W24,168,2025-08-14,WEIGHT,77.1,kg
TEST-001-001,TEST-001-001-CN003115,12,W24,168,2025-11-03,WEIGHT,54.1,kg
TEST-001-001,TEST-001-001-CN010116,12,W24,168,2025-06-28,WEIGHT,64.8,kg
TEST-001-001,TEST-001-001-CN006117,12,W24,168,2025-11-14,WEIGHT,63.9,kg
TEST-001-001,TEST-001-001-CN002118,12,W24,168,2025-10-02,WEIGHT,68.4,kg
TEST-001-001,TEST-001-001-CN008120,12,W24,168,2025-07-28,WEIGHT,71.1,kg
TEST-001-001,TEST-001-001-CN007121,12,W24,168,2025-10-07,WEIGHT,54.8,kg
TEST-001-001,TEST-001-001-CN004123,12,W24,168,2025-07-07,WEIGHT,70.3,kg
TEST-001-001,TEST-001-001-CN005124,12,W24,168,2025-07-02,WEIGHT,77.6,kg
TEST-001-001,TEST-001-001-CN009125,12,W24,168,2025-07-24,WEIGHT,79.9,kg
TEST-001-001,TEST-001-001-CN005126,12,W24,168,2025-08-05,WEIGHT,86.7,kg
TEST-001-001,TEST-001-001-CN001127,12,W24,168,2025-09-21,WEIGHT,71.5,kg
TEST-001-001,TEST-001-001-CN007129,12,W24,168,2025-09-14,WEIGHT,70.3,kg
TEST-001-001,TEST-001-001-CN010130,12,W24,168,2025-07-29,WEIGHT,51.3,kg
TEST-001-001,TEST-001-001-CN003131,12,W24,168,2025-07-01,WEIGHT,71.1,kg
TEST-001-001,TEST-001-001-CN001133,12,W24,168,2025-10-06,WEIGHT,54.4,kg
TEST-001-001,TEST-001-001-CN006134,12,W24,168,2025-10-20,WEIGHT,67.9,kg
TEST-001-001,TEST-001-001-CN005136,12,W24,168,2025-08-03,WEIGHT,64.6,kg
TEST-001-001,TEST-001-001-CN002137,12,W24,168,2025-06-20,WEIGHT,83.6,kg
TEST-001-001,TEST-001-001-CN003138,10,W24,168,2025-08-27,WEIGHT,60.6,kg
TEST-001-001,TEST-001-001-CN008139,12,W24,168,2025-07-31,WEIGHT,70.8,kg
TEST-001-001,TEST-001-001-CN006140,12,W24,168,2025-06-25,WEIGHT,72.5,kg
TEST-001-001,TEST-001-001-CN003141,10,W24,168,2025-11-07,WEIGHT,80.6,kg
TEST-001-001,TEST-001-001-CN006142,12,W24,168,2025-10-27,WEIGHT,68.5,kg
TEST-001-001,TEST-001-001-CN006144,12,W24,168,2025-07-16,WEIGHT,72.4,kg
TEST-001-001,TEST-001-001-CN009145,12,W24,168,2025-09-16,WEIGHT,74.1,kg
TEST-001-001,TEST-001-001-CN009146,12,W24,168,2025-11-13,WEIGHT,50.3,kg
TEST-001-001,TEST-001-001-CN009148,10,W24,168,2025-10-10,WEIGHT,58.2,kg
TEST-001-001,TEST-001-001-CN004149,12,W24,168,2025-07-18,WEIGHT,79.1,kg
TEST-001-001,TEST-001-001-CN008150,12,W24,168,2025-07-22,WEIGHT,88.6,kg
TEST-001-001,TEST-001-001-CN010151,12,W24,168,2025-10-05,WEIGHT,76.2,kg
TEST-001-001,TEST-001-001-CN004152,12,W24,168,2025-10-30,WEIGHT,85.9,kg
TEST-001-001,TEST-001-001-CN007153,10,W24,168,2025-07-24,WEIGHT,41.0,kg
TEST-001-001,TEST-001-001-CN002154,10,W24,168,2025-08-26,WEIGHT,61.9,kg
TEST-001-001,TEST-001-001-CN008155,12,W24,168,2025-08-25,WEIGHT,74.4,kg
TEST-001-001,TEST-001-001-CN003156,12,W24,168,2025-07-30,WEIGHT,59.0,kg
TEST-001-001,TEST-001-001-CN002157,12,W24,168,2025-08-14,WEIGHT,86.4,kg
TEST-001-001,TEST-001-001-CN005158,12,W24,168,2025-07-05,WEIGHT,52.4,kg
TEST-001-001,TEST-001-001-CN005159,12,W24,168,2025-10-17,WEIGHT,58.9,kg
TEST-001-001,TEST-001-001-CN009160,12,W24,168,2025-06-27,WEIGHT,73.2,kg
TEST-001-001,TEST-001-001-CN001161,12,W24,168,2025-08-11,WEIGHT,48.3,kg
TEST-001-001,TEST-001-001-CN004163,12,W24,168,2025-06-22,WEIGHT,62.9,kg
TEST-001-001,TEST-001-001-CN002164,12,W24,168,2025-11-01,WEIGHT,62.1,kg
TEST-001-001,TEST-001-001-CN007165,12,W24,168,2025-07-26,WEIGHT,46.8,kg
TEST-001-001,TEST-001-001-CN006166,12,W24,168,2025-09-25,WEIGHT,71.2,kg
TEST-001-001,TEST-001-001-CN008167,12,W24,168,2025-09-05,WEIGHT,87.6,kg
TEST-001-001,TEST-001-001-CN002168,10,W24,168,2025-07-05,WEIGHT,98.8,kg
TEST-001-001,TEST-001-001-CN006169,12,W24,168,2025-08-01,WEIGHT,72.1,kg
TEST-001-001,TEST-001-001-CN003170,12,W24,168,2025-09-19,WEIGHT,53.7,kg
TEST-001-001,TEST-001-001-CN004171,12,W24,168,2025-08-20,WEIGHT,61.0,kg
TEST-001-001,TEST-001-001-CN002172,10,W24,168,2025-06-17,WEIGHT,49.7,kg
TEST-001-001,TEST-001-001-CN003173,12,W24,168,2025-10-30,WEIGHT,87.2,kg
TEST-001-001,TEST-001-001-CN010174,12,W24,168,2025-10-06,WEIGHT,67.7,kg
TEST-001-001,TEST-001-001-CN005175,12,W24,168,2025-11-07,WEIGHT,63.0,kg
TEST-001-001,TEST-001-001-CN008176,12,W24,168,2025-07-17,WEIGHT,75.0,kg
TEST-001-001,TEST-001-001-CN002177,12,W24,168,2025-11-11,WEIGHT,56.5,kg
TEST-001-001,TEST-001-001-CN001178,12,W24,168,2025-09-26,WEIGHT,62.8,kg
TEST-001-001,TEST-001-001-CN009179,10,W24,168,2025-11-22,WEIGHT,68.2,kg
TEST-001-001,TEST-001-001-CN008180,12,W24,168,2025-08-09,WEIGHT,72.5,kg
TEST-001-001,TEST-001-001-CN005181,12,W24,168,2025-10-21,WEIGHT,80.8,kg
TEST-001-001,TEST-001-001-CN006183,12,W24,168,2025-09-12,WEIGHT,74.5,kg
TEST-001-001,TEST-001-001-CN009184,12,W24,168,2025-07-18,WEIGHT,52.7,kg
TEST-001-001,TEST-001-001-CN002185,12,W24,168,2025-09-13,WEIGHT,64.7,kg
TEST-001-001,TEST-001-001-CN009186,12,W24,168,2025-11-23,WEIGHT,77.0,kg
TEST-001-001,TEST-001-001-CN001187,10,W24,168,2025-10-05,WEIGHT,60.5,kg
TEST-001-001,TEST-001-001-CN004188,12,W24,168,2025-09-01,WEIGHT,86.7,kg
TEST-001-001,TEST-001-001-CN010189,12,W24,168,2025-08-20,WEIGHT,83.2,kg
TEST-001-001,TEST-001-001-CN005190,12,W24,168,2025-09-18,WEIGHT,61.8,kg
TEST-001-001,TEST-001-001-CN005191,10,W24,168,2025-09-20,WEIGHT,52.6,kg
TEST-001-001,TEST-001-001-CN004192,12,W24,168,2025-08-02,WEIGHT,81.0,kg
TEST-001-001,TEST-001-001-CN004193,12,W24,168,2025-08-17,WEIGHT,83.0,kg
TEST-001-001,TEST-001-001-CN007194,10,W24,168,2025-07-31,WEIGHT,63.4,kg
TEST-001-001,TEST-001-001-CN004195,10,W24,168,2025-11-17,WEIGHT,71.7,kg
TEST-001-001,TEST-001-001-CN002196,10,W24,168,2025-09-14,WEIGHT,72.9,kg
TEST-001-001,TEST-001-001-CN008198,12,W24,168,2025-08-16,WEIGHT,94.1,kg
TEST-001-001,TEST-001-001-CN002199,12,W24,168,2025-07-21,WEIGHT,64.7,kg
