STUDYID,USUBJID,SUBJID,SITEID,AGE,SEX,RACE,COUNTRY,ARMCD,ARM,TRT01P,TRT01A,TRT01AN,TRTSDT,TRTEDT,SAFFL,ITTFL,DSDECOD
TEST-001-001,TEST-001-001-CN001001,CN001001,CN001,59,M,,,PBO,PBO,PBO,PBO,0,2025-01-23,2025-08-16,Y,Y,DISCONTINUED
TEST-001-001,TEST-001-001-CN001012,CN001012,CN001,56,M,,,PBO,PBO,PBO,PBO,0,2025-02-16,2025-08-03,Y,Y,COMPLETED/ONGOING
TEST-001-001,TEST-001-001-CN001049,CN001049,CN001,72,M,,,PBO,PBO,PBO,PBO,0,2025-02-19,2025-08-06,Y,Y,COMPLETED/ONGOING
TEST-001-001,TEST-001-001-CN001074,CN001074,CN001,61,M,,,PBO,PBO,PBO,PBO,0,2025-01-27,2025-07-14,Y,Y,COMPLETED/ONGOING
TEST-001-001,TEST-001-001-CN001081,CN001081,CN001,49,F,,,PBO,PBO,PBO,PBO,0,2025-04-17,2025-10-02,Y,Y,COMPLETED/ONGOING
TEST-001-001,TEST-001-001-CN001087,CN001087,CN001,59,F,,,TRT,TRT,TRT,TRT,1,2025-05-07,2025-10-22,Y,Y,COMPLETED/ONGOING
TEST-001-001,TEST-001-001-CN001092,CN001092,CN001,40,M,,,PBO,PBO,PBO,PBO,0,2025-03-19,2025-09-03,Y,Y,COMPLETED/ONGOING
TEST-001-001,TEST-001-001-CN001127,CN001127,CN001,52,F,,,PBO,PBO,PBO,PBO,0,2025-04-07,2025-09-22,Y,Y,COMPLETED/ONGOING
TEST-001-001,TEST-001-001-CN001133,CN001133,CN001,49,M,,,PBO,PBO,PBO,PBO,0,2025-04-18,2025-10-03,Y,Y,COMPLETED/ONGOING
TEST-001-001,TEST-001-001-CN001161,CN001161,CN001,66,F,,,PBO,PBO,PBO,PBO,0,2025-02-23,2025-08-10,Y,Y,COMPLETED/ONGOING
TEST-001-001,TEST-001-001-CN001178,CN001178,CN001,61,M,,,PBO,PBO,PBO,PBO,0,2025-04-12,2025-09-27,Y,Y,COMPLETED/ONGOING
TEST-001-001,TEST-001-001-CN001187,CN001187,CN001,56,M,,,PBO,PBO,PBO,PBO,0,2025-04-22,2025-10-07,Y,Y,COMPLETED/ONGOING
TEST-001-001,TEST-001-001-CN002007,CN002007,CN002,65,M,,,PBO,PBO,PBO,PBO,0,2025-05-29,2025-11-13,Y,Y,COMPLETED/ONGOING
TEST-001-001,TEST-001-001-CN002008,CN002008,CN002,61,F,,,PBO,PBO,PBO,PBO,0,2025-01-29,2025-07-16,Y,Y,COMPLETED/ONGOING
TEST-001-001,TEST-001-001-CN002011,CN002011,CN002,55,M,,,PBO,PBO,PBO,PBO,0,2025-04-30,2025-10-15,Y,Y,COMPLETED/ONGOING
TEST-001-001,TEST-001-001-CN002031,CN002031,CN002,70,F,,,TRT,TRT,TRT,TRT,1,2025-01-19,2025-07-06,Y,Y,COMPLETED/ONGOING
TEST-001-001,TEST-001-001-CN002032,CN002032,CN002,74,F,,,TRT,TRT,TRT,TRT,1,2025-04-05,2025-09-20,Y,Y,COMPLETED/ONGOING
TEST-001-001,TEST-001-001-CN002039,CN002039,CN002,51,M,,,TRT,TRT,TRT,TRT,1,2025-02-08,2025-07-26,Y,Y,COMPLETED/ONGOING
TEST-001-001,TEST-001-001-CN002054,CN002054,CN002,57,F,,,PBO,PBO,PBO,PBO,0,2025-01-07,2025-06-24,Y,Y,COMPLETED/ONGOING
TEST-001-001,TEST-001-001-CN002062,CN002062,CN002,60,M,,,TRT,TRT,TRT,TRT,1,2025-01-28,2025-07-15,Y,Y,COMPLETED/ONGOING
TEST-001-001,TEST-001-001-CN002068,CN002068,CN002,58,M,,,PBO,PBO,PBO,PBO,0,2025-04-07,2025-09-24,Y,Y,DISCONTINUED
TEST-001-001,TEST-001-001-CN002097,CN002097,CN002,54,M,,,TRT,TRT,TRT,TRT,1,2025-01-21,2025-07-08,Y,Y,COMPLETED/ONGOING
TEST-001-001,TEST-001-001-CN002118,CN002118,CN002,58,M,,,TRT,TRT,TRT,TRT,1,2025-04-18,2025-10-03,Y,Y,COMPLETED/ONGOING
TEST-001-001,TEST-001-001-CN002137,CN002137,CN002,65,F,,,PBO,PBO,PBO,PBO,0,2025-01-06,2025-06-23,Y,Y,COMPLETED/ONGOING
TEST-001-001,TEST-001-001-CN002154,CN002154,CN002,67,M,,,TRT,TRT,TRT,TRT,1,2025-03-09,2025-08-24,Y,Y,COMPLETED/ONGOING
TEST-001-001,TEST-001-001-CN002157,CN002157,CN002,70,F,,,TRT,TRT,TRT,TRT,1,2025-02-24,2025-08-11,Y,Y,COMPLETED/ONGOING
TEST-001-001,TEST-001-001-CN002164,CN002164,CN002,51,F,,,PBO,PBO,PBO,PBO,0,2025-05-17,2025-11-01,Y,Y,COMPLETED/ONGOING
TEST-001-001,TEST-001-001-CN002168,CN002168,CN002,53,M,,,PBO,PBO,PBO,PBO,0,2025-01-19,2025-07-06,Y,Y,COMPLETED/ONGOING
TEST-001-001,TEST-001-001-CN002172,CN002172,CN002,52,F,,,TRT,TRT,TRT,TRT,1,2025-01-02,2025-06-19,Y,Y,COMPLETED/ONGOING
TEST-001-001,TEST-001-001-CN002177,CN002177,CN002,60,M,,,TRT,TRT,TRT,TRT,1,2025-05-24,2025-11-08,Y,Y,COMPLETED/ONGOING
TEST-001-001,TEST-001-001-CN002185,CN002185,CN002,57,M,,,PBO,PBO,PBO,PBO,0,2025-03-26,2025-09-10,Y,Y,COMPLETED/ONGOING
TEST-001-001,TEST-001-001-CN002196,CN002196,CN002,52,M,,,PBO,PBO,PBO,PBO,0,2025-03-27,2025-09-11,Y,Y,COMPLETED/ONGOING
TEST-001-001,TEST-001-001-CN002199,CN002199,CN002,62,M,,,TRT,TRT,TRT,TRT,1,2025-02-02,2025-07-20,Y,Y,COMPLETED/ONGOING
TEST-001-001,TEST-001-001-CN003003,CN003003,CN003,54,M,,,TRT,TRT,TRT,TRT,1,2025-04-02,2025-09-17,Y,Y,COMPLETED/ONGOING
TEST-001-001,TEST-001-001-CN003018,CN003018,CN003,56,M,,,PBO,PBO,PBO,PBO,0,2025-03-03,2025-09-17,Y,Y,DISCONTINUED
TEST-001-001,TEST-001-001-CN003040,CN003040,CN003,63,F,,,TRT,TRT,TRT,TRT,1,2025-01-25,2025-07-12,Y,Y,COMPLETED/ONGOING
TEST-001-001,TEST-001-001-CN003044,CN003044,CN003,55,M,,,TRT,TRT,TRT,TRT,1,2025-03-22,2025-09-06,Y,Y,COMPLETED/ONGOING
TEST-001-001,TEST-001-001-CN003069,CN003069,CN003,70,M,,,TRT,TRT,TRT,TRT,1,2025-01-03,2025-06-20,Y,Y,COMPLETED/ONGOING
TEST-001-001,TEST-001-001-CN003070,CN003070,CN003,71,F,,,TRT,TRT,TRT,TRT,1,2025-02-19,2025-08-06,Y,Y,COMPLETED/ONGOING
TEST-001-001,TEST-001-001-CN003075,CN003075,CN003,56,F,,,PBO,PBO,PBO,PBO,0,2025-03-22,2025-09-06,Y,Y,COMPLETED/ONGOING
TEST-001-001,TEST-001-001-CN003076,CN003076,CN003,72,F,,,TRT,TRT,TRT,TRT,1,2025-02-21,2025-08-08,Y,Y,COMPLETED/ONGOING
TEST-001-001,TEST-001-001-CN003080,CN003080,CN003,73,F,,,TRT,TRT,TRT,TRT,1,2025-04-02,2025-09-17,Y,Y,COMPLETED/ONGOING
TEST-001-001,TEST-001-001-CN003082,CN003082,CN003,71,F,,,TRT,TRT,TRT,TRT,1,2025-02-28,2025-08-15,Y,Y,COMPLETED/ONGOING
TEST-001-001,TEST-001-001-CN003103,CN003103,CN003,62,F,,,TRT,TRT,TRT,TRT,1,2025-01-17,2025-02-18,Y,Y,DISCONTINUED
TEST-001-001,TEST-001-001-CN003109,CN003109,CN003,78,F,,,PBO,PBO,PBO,PBO,0,2025-03-31,2025-05-17,Y,Y,DISCONTINUED
TEST-001-001,TEST-001-001-CN003114,CN003114,CN003,48,F,,,PBO,PBO,PBO,PBO,0,2025-04-04,2025-07-06,Y,Y,DISCONTINUED
TEST-001-001,TEST-001-001-CN003115,CN003115,CN003,39,M,,,PBO,PBO,PBO,PBO,0,2025-05-20,2025-11-04,Y,Y,COMPLETED/ONGOING
TEST-001-001,TEST-001-001-CN003131,CN003131,CN003,56,M,,,TRT,TRT,TRT,TRT,1,2025-01-14,2025-07-01,Y,Y,COMPLETED/ONGOING
TEST-001-001,TEST-001-001-CN003135,CN003135,CN003,64,M,,,TRT,TRT,TRT,TRT,1,2025-01-07,2025-02-11,Y,Y,DISCONTINUED
TEST-001-001,TEST-001-001-CN003138,CN003138,CN003,56,M,,,PBO,PBO,PBO,PBO,0,2025-03-12,2025-08-27,Y,Y,COMPLETED/ONGOING
TEST-001-001,TEST-001-001-CN003141,CN003141,CN003,64,F,,,PBO,PBO,PBO,PBO,0,2025-05-20,2025-11-04,Y,Y,COMPLETED/ONGOING
TEST-001-001,TEST-001-001-CN003147,CN003147,CN003,49,M,,,PBO,PBO,PBO,PBO,0,2025-04-10,2025-09-25,Y,Y,COMPLETED/ONGOING
TEST-001-001,TEST-001-001-CN003156,CN003156,CN003,70,F,,,PBO,PBO,PBO,PBO,0,2025-02-12,2025-07-30,Y,Y,COMPLETED/ONGOING
TEST-001-001,TEST-001-001-CN003170,CN003170,CN003,64,M,,,PBO,PBO,PBO,PBO,0,2025-04-07,2025-09-22,Y,Y,COMPLETED/ONGOING
TEST-001-001,TEST-001-001-CN003173,CN003173,CN003,60,M,,,TRT,TRT,TRT,TRT,1,2025-05-15,2025-10-30,Y,Y,COMPLETED/ONGOING
TEST-001-001,TEST-001-001-CN004002,CN004002,CN004,60,F,,,PBO,PBO,PBO,PBO,0,2025-02-05,2025-07-23,Y,Y,COMPLETED/ONGOING
TEST-001-001,TEST-001-001-CN004009,CN004009,CN004,60,F,,,TRT,TRT,TRT,TRT,1,2025-05-28,2025-11-12,Y,Y,COMPLETED/ONGOING
TEST-001-001,TEST-001-001-CN004014,CN004014,CN004,48,F,,,TRT,TRT,TRT,TRT,1,2025-06-07,2025-07-07,Y,Y,DISCONTINUED
TEST-001-001,TEST-001-001-CN004026,CN004026,CN004,48,F,,,PBO,PBO,PBO,PBO,0,2025-03-19,2025-09-03,Y,Y,COMPLETED/ONGOING
TEST-001-001,TEST-001-001-CN004033,CN004033,CN004,52,M,,,TRT,TRT,TRT,TRT,1,2025-02-26,2025-08-13,Y,Y,COMPLETED/ONGOING
TEST-001-001,TEST-001-001-CN004042,CN004042,CN004,54,F,,,PBO,PBO,PBO,PBO,0,2025-05-12,2025-10-27,Y,Y,COMPLETED/ONGOING
TEST-001-001,TEST-001-001-CN004050,CN004050,CN004,62,F,,,TRT,TRT,TRT,TRT,1,2025-01-05,2025-06-17,Y,Y,DISCONTINUED
TEST-001-001,TEST-001-001-CN004057,CN004057,CN004,58,F,,,PBO,PBO,PBO,PBO,0,2025-05-11,2025-11-01,Y,Y,DISCONTINUED
TEST-001-001,TEST-001-001-CN004094,CN004094,CN004,66,M,,,TRT,TRT,TRT,TRT,1,2025-04-03,2025-09-18,Y,Y,COMPLETED/ONGOING
TEST-001-001,TEST-001-001-CN004096,CN004096,CN004,54,M,,,TRT,TRT,TRT,TRT,1,2025-03-16,2025-08-31,Y,Y,COMPLETED/ONGOING
TEST-001-001,TEST-001-001-CN004098,CN004098,CN004,65,M,,,TRT,TRT,TRT,TRT,1,2025-06-05,2025-11-20,Y,Y,COMPLETED/ONGOING
TEST-001-001,TEST-001-001-CN004105,CN004105,CN004,61,M,,,TRT,TRT,TRT,TRT,1,2025-03-29,2025-09-13,Y,Y,COMPLETED/ONGOING
TEST-001-001,TEST-001-001-CN004123,CN004123,CN004,49,F,,,PBO,PBO,PBO,PBO,0,2025-01-17,2025-07-04,Y,Y,COMPLETED/ONGOING
TEST-001-001,TEST-001-001-CN004143,CN004143,CN004,55,M,,,TRT,TRT,TRT,TRT,1,2025-06-04,2025-11-19,Y,Y,COMPLETED/ONGOING
TEST-001-001,TEST-001-001-CN004149,CN004149,CN004,57,F,,,TRT,TRT,TRT,TRT,1,2025-01-31,2025-07-18,Y,Y,COMPLETED/ONGOING
TEST-001-001,TEST-001-001-CN004152,CN004152,CN004,65,M,,,PBO,PBO,PBO,PBO,0,2025-05-17,2025-11-01,Y,Y,COMPLETED/ONGOING
TEST-001-001,TEST-001-001-CN004163,CN004163,CN004,60,F,,,TRT,TRT,TRT,TRT,1,2025-01-08,2025-06-25,Y,Y,COMPLETED/ONGOING
TEST-001-001,TEST-001-001-CN004171,CN004171,CN004,67,F,,,PBO,PBO,PBO,PBO,0,2025-03-07,2025-08-22,Y,Y,COMPLETED/ONGOING
TEST-001-001,TEST-001-001-CN004188,CN004188,CN004,58,F,,,PBO,PBO,PBO,PBO,0,2025-03-16,2025-08-31,Y,Y,COMPLETED/ONGOING
TEST-001-001,TEST-001-001-CN004192,CN004192,CN004,67,F,,,TRT,TRT,TRT,TRT,1,2025-02-12,2025-07-30,Y,Y,COMPLETED/ONGOING
TEST-001-001,TEST-001-001-CN004193,CN004193,CN004,49,F,,,PBO,PBO,PBO,PBO,0,2025-03-05,2025-08-20,Y,Y,COMPLETED/ONGOING
TEST-001-001,TEST-001-001-CN004195,CN004195,CN004,69,F,,,TRT,TRT,TRT,TRT,1,2025-06-04,2025-11-19,Y,Y,COMPLETED/ONGOING
TEST-001-001,TEST-001-001-CN004197,CN004197,CN004,55,M,,,TRT,TRT,TRT,TRT,1,2025-04-29,2025-06-03,Y,Y,DISCONTINUED
TEST-001-001,TEST-001-001-CN004200,CN004200,CN004,40,M,,,TRT,TRT,TRT,TRT,1,2025-03-20,2025-04-30,Y,Y,DISCONTINUED
TEST-001-001,TEST-001-001-CN005013,CN005013,CN005,50,M,,,TRT,TRT,TRT,TRT,1,2025-05-26,2025-11-10,Y,Y,COMPLETED/ONGOING
TEST-001-001,TEST-001-001-CN005024,CN005024,CN005,61,M,,,TRT,TRT,TRT,TRT,1,2025-02-19,2025-08-06,Y,Y,COMPLETED/ONGOING
TEST-001-001,TEST-001-001-CN005028,CN005028,CN005,78,M,,,PBO,PBO,PBO,PBO,0,2025-04-07,2025-09-22,Y,Y,COMPLETED/ONGOING
TEST-001-001,TEST-001-001-CN005034,CN005034,CN005,74,M,,,TRT,TRT,TRT,TRT,1,2025-03-06,2025-08-21,Y,Y,COMPLETED/ONGOING
TEST-001-001,TEST-001-001-CN005035,CN005035,CN005,83,M,,,TRT,TRT,TRT,TRT,1,2025-03-25,2025-09-09,Y,Y,COMPLETED/ONGOING
TEST-001-001,TEST-001-001-CN005036,CN005036,CN005,59,M,,,TRT,TRT,TRT,TRT,1,2025-02-09,2025-07-27,Y,Y,COMPLETED/ONGOING
TEST-001-001,TEST-001-001-CN005046,CN005046,CN005,64,M,,,PBO,PBO,PBO,PBO,0,2025-01-21,2025-08-01,Y,Y,DISCONTINUED
TEST-001-001,TEST-001-001-CN005051,CN005051,CN005,85,F,,,TRT,TRT,TRT,TRT,1,2025-05-06,2025-11-13,Y,Y,DISCONTINUED
TEST-001-001,TEST-001-001-CN005052,CN005052,CN005,57,F,,,TRT,TRT,TRT,TRT,1,2025-01-20,2025-07-07,Y,Y,COMPLETED/ONGOING
TEST-001-001,TEST-001-001-CN005071,CN005071,CN005,68,F,,,PBO,PBO,PBO,PBO,0,2025-01-23,2025-07-10,Y,Y,COMPLETED/ONGOING
TEST-001-001,TEST-001-001-CN005078,CN005078,CN005,74,F,,,TRT,TRT,TRT,TRT,1,2025-03-16,2025-08-31,Y,Y,COMPLETED/ONGOING
TEST-001-001,TEST-001-001-CN005079,CN005079,CN005,48,M,,,TRT,TRT,TRT,TRT,1,2025-03-10,2025-08-25,Y,Y,COMPLETED/ONGOING
TEST-001-001,TEST-001-001-CN005091,CN005091,CN005,38,F,,,PBO,PBO,PBO,PBO,0,2025-05-12,2025-10-27,Y,Y,COMPLETED/ONGOING
TEST-001-001,TEST-001-001-CN005107,CN005107,CN005,55,M,,,PBO,PBO,PBO,PBO,0,2025-04-30,2025-10-15,Y,Y,COMPLETED/ONGOING
TEST-001-001,TEST-001-001-CN005112,CN005112,CN005,58,M,,,TRT,TRT,TRT,TRT,1,2025-02-26,2025-08-13,Y,Y,COMPLETED/ONGOING
TEST-001-001,TEST-001-001-CN005124,CN005124,CN005,67,F,,,PBO,PBO,PBO,PBO,0,2025-01-16,2025-07-03,Y,Y,COMPLETED/ONGOING
TEST-001-001,TEST-001-001-CN005126,CN005126,CN005,63,F,,,PBO,PBO,PBO,PBO,0,2025-02-21,2025-08-08,Y,Y,COMPLETED/ONGOING
TEST-001-001,TEST-001-001-CN005136,CN005136,CN005,51,F,,,PBO,PBO,PBO,PBO,0,2025-02-19,2025-08-06,Y,Y,COMPLETED/ONGOING
TEST-001-001,TEST-001-001-CN005158,CN005158,CN005,51,F,,,PBO,PBO,PBO,PBO,0,2025-01-18,2025-07-05,Y,Y,COMPLETED/ONGOING
TEST-001-001,TEST-001-001-CN005159,CN005159,CN005,68,M,,,PBO,PBO,PBO,PBO,0,2025-05-04,2025-10-19,Y,Y,COMPLETED/ONGOING
TEST-001-001,TEST-001-001-CN005175,CN005175,CN005,66,F,,,TRT,TRT,TRT,TRT,1,2025-05-20,2025-11-04,Y,Y,COMPLETED/ONGOING
TEST-001-001,TEST-001-001-CN005181,CN005181,CN005,50,F,,,PBO,PBO,PBO,PBO,0,2025-05-08,2025-10-23,Y,Y,COMPLETED/ONGOING
TEST-001-001,TEST-001-001-CN005190,CN005190,CN005,63,F,,,TRT,TRT,TRT,TRT,1,2025-04-02,2025-09-17,Y,Y,COMPLETED/ONGOING
TEST-001-001,TEST-001-001-CN005191,CN005191,CN005,43,M,,,TRT,TRT,TRT,TRT,1,2025-04-07,2025-09-22,Y,Y,COMPLETED/ONGOING
TEST-001-001,TEST-001-001-CN006005,CN006005,CN006,53,M,,,TRT,TRT,TRT,TRT,1,2025-03-30,2025-09-14,Y,Y,COMPLETED/ONGOING
TEST-001-001,TEST-001-001-CN006027,CN006027,CN006,63,M,,,TRT,TRT,TRT,TRT,1,2025-01-14,2025-07-01,Y,Y,COMPLETED/ONGOING
TEST-001-001,TEST-001-001-CN006043,CN006043,CN006,50,F,,,PBO,PBO,PBO,PBO,0,2025-01-04,2025-06-21,Y,Y,COMPLETED/ONGOING
TEST-001-001,TEST-001-001-CN006045,CN006045,CN006,44,F,,,PBO,PBO,PBO,PBO,0,2025-01-18,2025-08-09,Y,Y,DISCONTINUED
TEST-001-001,TEST-001-001-CN006047,CN006047,CN006,61,M,,,PBO,PBO,PBO,PBO,0,2025-04-16,2025-10-01,Y,Y,COMPLETED/ONGOING
TEST-001-001,TEST-001-001-CN006048,CN006048,CN006,57,F,,,PBO,PBO,PBO,PBO,0,2025-01-18,2025-07-05,Y,Y,COMPLETED/ONGOING
TEST-001-001,TEST-001-001-CN006053,CN006053,CN006,66,M,,,PBO,PBO,PBO,PBO,0,2025-03-01,2025-08-16,Y,Y,COMPLETED/ONGOING
TEST-001-001,TEST-001-001-CN006055,CN006055,CN006,43,F,,,PBO,PBO,PBO,PBO,0,2025-04-04,2025-09-19,Y,Y,COMPLETED/ONGOING
TEST-001-001,TEST-001-001-CN006061,CN006061,CN006,59,M,,,TRT,TRT,TRT,TRT,1,2025-01-29,2025-07-16,Y,Y,COMPLETED/ONGOING
TEST-001-001,TEST-001-001-CN006072,CN006072,CN006,60,F,,,TRT,TRT,TRT,TRT,1,2025-01-16,2025-07-03,Y,Y,COMPLETED/ONGOING
TEST-001-001,TEST-001-001-CN006073,CN006073,CN006,62,F,,,PBO,PBO,PBO,PBO,0,2025-02-14,2025-05-28,Y,Y,DISCONTINUED
TEST-001-001,TEST-001-001-CN006084,CN006084,CN006,59,M,,,PBO,PBO,PBO,PBO,0,2025-01-22,2025-07-09,Y,Y,COMPLETED/ONGOING
TEST-001-001,TEST-001-001-CN006088,CN006088,CN006,51,M,,,PBO,PBO,PBO,PBO,0,2025-05-04,2025-10-19,Y,Y,COMPLETED/ONGOING
TEST-001-001,TEST-001-001-CN006093,CN006093,CN006,70,M,,,TRT,TRT,TRT,TRT,1,2025-02-17,2025-08-04,Y,Y,COMPLETED/ONGOING
TEST-001-001,TEST-001-001-CN006100,CN006100,CN006,50,F,,,PBO,PBO,PBO,PBO,0,2025-06-02,2025-11-17,Y,Y,COMPLETED/ONGOING
TEST-001-001,TEST-001-001-CN006117,CN006117,CN006,74,M,,,PBO,PBO,PBO,PBO,0,2025-05-28,2025-11-12,Y,Y,COMPLETED/ONGOING
TEST-001-001,TEST-001-001-CN006128,CN006128,CN006,53,F,,,TRT,TRT,TRT,TRT,1,2025-04-16,2025-06-13,Y,Y,DISCONTINUED
TEST-001-001,TEST-001-001-CN006134,CN006134,CN006,57,F,,,TRT,TRT,TRT,TRT,1,2025-05-06,2025-10-21,Y,Y,COMPLETED/ONGOING
TEST-001-001,TEST-001-001-CN006140,CN006140,CN006,67,F,,,TRT,TRT,TRT,TRT,1,2025-01-10,2025-06-27,Y,Y,COMPLETED/ONGOING
TEST-001-001,TEST-001-001-CN006142,CN006142,CN006,53,F,,,PBO,PBO,PBO,PBO,0,2025-05-09,2025-10-24,Y,Y,COMPLETED/ONGOING
TEST-001-001,TEST-001-001-CN006144,CN006144,CN006,77,M,,,PBO,PBO,PBO,PBO,0,2025-01-30,2025-07-17,Y,Y,COMPLETED/ONGOING
TEST-001-001,TEST-001-001-CN006166,CN006166,CN006,46,M,,,PBO,PBO,PBO,PBO,0,2025-04-08,2025-09-23,Y,Y,COMPLETED/ONGOING
TEST-001-001,TEST-001-001-CN006169,CN006169,CN006,58,M,,,PBO,PBO,PBO,PBO,0,2025-02-17,2025-08-04,Y,Y,COMPLETED/ONGOING
TEST-001-001,TEST-001-001-CN006182,CN006182,CN006,68,F,,,PBO,PBO,PBO,PBO,0,2025-01-08,2025-06-25,Y,Y,COMPLETED/ONGOING
TEST-001-001,TEST-001-001-CN006183,CN006183,CN006,57,F,,,PBO,PBO,PBO,PBO,0,2025-03-26,2025-09-10,Y,Y,COMPLETED/ONGOING
TEST-001-001,TEST-001-001-CN007030,CN007030,CN007,57,M,,,PBO,PBO,PBO,PBO,0,2025-02-19,2025-08-06,Y,Y,COMPLETED/ONGOING
TEST-001-001,TEST-001-001-CN007037,CN007037,CN007,47,M,,,TRT,TRT,TRT,TRT,1,2025-04-21,2025-10-06,Y,Y,COMPLETED/ONGOING
TEST-001-001,TEST-001-001-CN007058,CN007058,CN007,64,F,,,TRT,TRT,TRT,TRT,1,2025-04-25,2025-10-10,Y,Y,COMPLETED/ONGOING
TEST-001-001,TEST-001-001-CN007067,CN007067,CN007,52,F,,,TRT,TRT,TRT,TRT,1,2025-01-24,2025-03-21,Y,Y,DISCONTINUED
TEST-001-001,TEST-001-001-CN007095,CN007095,CN007,74,M,,,TRT,TRT,TRT,TRT,1,2025-01-03,2025-05-23,Y,Y,DISCONTINUED
TEST-001-001,TEST-001-001-CN007108,CN007108,CN007,51,M,,,PBO,PBO,PBO,PBO,0,2025-06-07,2025-11-22,Y,Y,COMPLETED/ONGOING
TEST-001-001,TEST-001-001-CN007121,CN007121,CN007,55,M,,,PBO,PBO,PBO,PBO,0,2025-04-22,2025-10-07,Y,Y,COMPLETED/ONGOING
TEST-001-001,TEST-001-001-CN007129,CN007129,CN007,66,M,,,PBO,PBO,PBO,PBO,0,2025-03-27,2025-09-11,Y,Y,COMPLETED/ONGOING
TEST-001-001,TEST-001-001-CN007153,CN007153,CN007,67,M,,,PBO,PBO,PBO,PBO,0,2025-02-03,2025-07-21,Y,Y,COMPLETED/ONGOING
TEST-001-001,TEST-001-001-CN007165,CN007165,CN007,58,F,,,TRT,TRT,TRT,TRT,1,2025-02-07,2025-07-25,Y,Y,COMPLETED/ONGOING
TEST-001-001,TEST-001-001-CN007194,CN007194,CN007,52,M,,,PBO,PBO,PBO,PBO,0,2025-02-15,2025-08-02,Y,Y,COMPLETED/ONGOING
TEST-001-001,TEST-001-001-CN008004,CN008004,CN008,53,M,,,PBO,PBO,PBO,PBO,0,2025-06-09,2025-11-24,Y,Y,COMPLETED/ONGOING
TEST-001-001,TEST-001-001-CN008019,CN008019,CN008,62,F,,,PBO,PBO,PBO,PBO,0,2025-05-02,2025-09-26,Y,Y,DISCONTINUED
TEST-001-001,TEST-001-001-CN008041,CN008041,CN008,53,F,,,TRT,TRT,TRT,TRT,1,2025-02-16,2025-08-03,Y,Y,COMPLETED/ONGOING
TEST-001-001,TEST-001-001-CN008056,CN008056,CN008,56,M,,,PBO,PBO,PBO,PBO,0,2025-02-25,2025-08-12,Y,Y,COMPLETED/ONGOING
TEST-001-001,TEST-001-001-CN008077,CN008077,CN008,53,M,,,TRT,TRT,TRT,TRT,1,2025-01-23,2025-07-10,Y,Y,COMPLETED/ONGOING
TEST-001-001,TEST-001-001-CN008086,CN008086,CN008,69,F,,,TRT,TRT,TRT,TRT,1,2025-03-04,2025-07-02,Y,Y,DISCONTINUED
TEST-001-001,TEST-001-001-CN008119,CN008119,CN008,52,F,,,PBO,PBO,PBO,PBO,0,2025-02-11,2025-05-07,Y,Y,DISCONTINUED
TEST-001-001,TEST-001-001-CN008120,CN008120,CN008,59,M,,,TRT,TRT,TRT,TRT,1,2025-02-13,2025-07-31,Y,Y,COMPLETED/ONGOING
TEST-001-001,TEST-001-001-CN008132,CN008132,CN008,54,F,,,TRT,TRT,TRT,TRT,1,2025-03-16,2025-05-06,Y,Y,DISCONTINUED
TEST-001-001,TEST-001-001-CN008139,CN008139,CN008,66,F,,,TRT,TRT,TRT,TRT,1,2025-02-13,2025-07-31,Y,Y,COMPLETED/ONGOING
TEST-001-001,TEST-001-001-CN008150,CN008150,CN008,85,F,,,PBO,PBO,PBO,PBO,0,2025-02-02,2025-07-20,Y,Y,COMPLETED/ONGOING
TEST-001-001,TEST-001-001-CN008155,CN008155,CN008,61,M,,,TRT,TRT,TRT,TRT,1,2025-03-13,2025-08-28,Y,Y,COMPLETED/ONGOING
TEST-001-001,TEST-001-001-CN008167,CN008167,CN008,56,M,,,TRT,TRT,TRT,TRT,1,2025-03-21,2025-09-05,Y,Y,COMPLETED/ONGOING
TEST-001-001,TEST-001-001-CN008176,CN008176,CN008,55,M,,,TRT,TRT,TRT,TRT,1,2025-02-02,2025-07-20,Y,Y,COMPLETED/ONGOING
TEST-001-001,TEST-001-001-CN008180,CN008180,CN008,33,F,,,PBO,PBO,PBO,PBO,0,2025-02-21,2025-08-08,Y,Y,COMPLETED/ONGOING
TEST-001-001,TEST-001-001-CN008198,CN008198,CN008,46,M,,,TRT,TRT,TRT,TRT,1,2025-02-28,2025-08-15,Y,Y,COMPLETED/ONGOING
TEST-001-001,TEST-001-001-CN009006,CN009006,CN009,67,M,,,TRT,TRT,TRT,TRT,1,2025-01-12,2025-06-29,Y,Y,COMPLETED/ONGOING
TEST-001-001,TEST-001-001-CN009010,CN009010,CN009,54,F,,,PBO,PBO,PBO,PBO,0,2025-03-25,2025-09-09,Y,Y,COMPLETED/ONGOING
TEST-001-001,TEST-001-001-CN009015,CN009015,CN009,51,M,,,PBO,PBO,PBO,PBO,0,2025-04-26,2025-10-11,Y,Y,COMPLETED/ONGOING
TEST-001-001,TEST-001-001-CN009016,CN009016,CN009,66,F,,,PBO,PBO,PBO,PBO,0,2025-02-18,2025-08-05,Y,Y,COMPLETED/ONGOING
TEST-001-001,TEST-001-001-CN009025,CN009025,CN009,71,M,,,TRT,TRT,TRT,TRT,1,2025-02-25,2025-08-12,Y,Y,COMPLETED/ONGOING
TEST-001-001,TEST-001-001-CN009038,CN009038,CN009,44,F,,,TRT,TRT,TRT,TRT,1,2025-04-28,2025-10-13,Y,Y,COMPLETED/ONGOING
TEST-001-001,TEST-001-001-CN009059,CN009059,CN009,51,F,,,TRT,TRT,TRT,TRT,1,2025-04-21,2025-10-06,Y,Y,COMPLETED/ONGOING
TEST-001-001,TEST-001-001-CN009060,CN009060,CN009,61,M,,,PBO,PBO,PBO,PBO,0,2025-01-03,2025-06-20,Y,Y,COMPLETED/ONGOING
TEST-001-001,TEST-001-001-CN009063,CN009063,CN009,56,F,,,TRT,TRT,TRT,TRT,1,2025-03-29,2025-05-21,Y,Y,DISCONTINUED
TEST-001-001,TEST-001-001-CN009064,CN009064,CN009,51,F,,,PBO,PBO,PBO,PBO,0,2025-03-07,2025-08-22,Y,Y,COMPLETED/ONGOING
TEST-001-001,TEST-001-001-CN009065,CN009065,CN009,64,M,,,PBO,PBO,PBO,PBO,0,2025-04-03,2025-09-18,Y,Y,COMPLETED/ONGOING
TEST-001-001,TEST-001-001-CN009083,CN009083,CN009,61,F,,,TRT,TRT,TRT,TRT,1,2025-04-29,2025-06-22,Y,Y,DISCONTINUED
TEST-001-001,TEST-001-001-CN009089,CN009089,CN009,52,M,,,PBO,PBO,PBO,PBO,0,2025-01-31,2025-07-18,Y,Y,COMPLETED/ONGOING
TEST-001-001,TEST-001-001-CN009090,CN009090,CN009,55,F,,,TRT,TRT,TRT,TRT,1,2025-04-19,2025-10-04,Y,Y,COMPLETED/ONGOING
TEST-001-001,TEST-001-001-CN009099,CN009099,CN009,62,M,,,PBO,PBO,PBO,PBO,0,2025-02-15,2025-08-02,Y,Y,COMPLETED/ONGOING
TEST-001-001,TEST-001-001-CN009101,CN009101,CN009,57,M,,,TRT,TRT,TRT,TRT,1,2025-04-13,2025-09-28,Y,Y,COMPLETED/ONGOING
TEST-001-001,TEST-001-001-CN009104,CN009104,CN009,69,F,,,TRT,TRT,TRT,TRT,1,2025-01-29,2025-07-16,Y,Y,COMPLETED/ONGOING
TEST-001-001,TEST-001-001-CN009110,CN009110,CN009,62,M,,,TRT,TRT,TRT,TRT,1,2025-04-12,2025-09-27,Y,Y,COMPLETED/ONGOING
TEST-001-001,TEST-001-001-CN009122,CN009122,CN009,57,M,,,PBO,PBO,PBO,PBO,0,2025-02-17,2025-08-04,Y,Y,COMPLETED/ONGOING
TEST-001-001,TEST-001-001-CN009125,CN009125,CN009,46,M,,,PBO,PBO,PBO,PBO,0,2025-02-04,2025-07-22,Y,Y,COMPLETED/ONGOING
TEST-001-001,TEST-001-001-CN009145,CN009145,CN009,67,F,,,TRT,TRT,TRT,TRT,1,2025-03-29,2025-09-13,Y,Y,COMPLETED/ONGOING
TEST-001-001,TEST-001-001-CN009146,CN009146,CN009,50,M,,,TRT,TRT,TRT,TRT,1,2025-05-27,2025-11-11,Y,Y,COMPLETED/ONGOING
TEST-001-001,TEST-001-001-CN009148,CN009148,CN009,62,M,,,TRT,TRT,TRT,TRT,1,2025-04-27,2025-10-12,Y,Y,COMPLETED/ONGOING
TEST-001-001,TEST-001-001-CN009160,CN009160,CN009,69,M,,,TRT,TRT,TRT,TRT,1,2025-01-08,2025-06-25,Y,Y,COMPLETED/ONGOING
TEST-001-001,TEST-001-001-CN009179,CN009179,CN009,47,F,,,TRT,TRT,TRT,TRT,1,2025-06-04,2025-11-19,Y,Y,COMPLETED/ONGOING
TEST-001-001,TEST-001-001-CN009184,CN009184,CN009,53,F,,,TRT,TRT,TRT,TRT,1,2025-01-31,2025-07-18,Y,Y,COMPLETED/ONGOING
TEST-001-001,TEST-001-001-CN009186,CN009186,CN009,68,F,,,TRT,TRT,TRT,TRT,1,2025-06-09,2025-11-24,Y,Y,COMPLETED/ONGOING
TEST-001-001,TEST-001-001-CN010017,CN010017,CN010,57,M,,,PBO,PBO,PBO,PBO,0,2025-03-21,2025-09-05,Y,Y,COMPLETED/ONGOING
TEST-001-001,TEST-001-001-CN010020,CN010020,CN010,50,M,,,TRT,TRT,TRT,TRT,1,2025-03-03,2025-08-18,Y,Y,COMPLETED/ONGOING
TEST-001-001,TEST-001-001-CN010021,CN010021,CN010,65,F,,,PBO,PBO,PBO,PBO,0,2025-06-06,2025-08-26,Y,Y,DISCONTINUED
TEST-001-001,TEST-001-001-CN010022,CN010022,CN010,63,M,,,PBO,PBO,PBO,PBO,0,2025-03-30,2025-09-10,Y,Y,DISCONTINUED
TEST-001-001,TEST-001-001-CN010023,CN010023,CN010,51,F,,,PBO,PBO,PBO,PBO,0,2025-01-23,2025-07-10,Y,Y,COMPLETED/ONGOING
TEST-001-001,TEST-001-001-CN010029,CN010029,CN010,74,M,,,TRT,TRT,TRT,TRT,1,2025-01-09,2025-07-14,Y,Y,DISCONTINUED
TEST-001-001,TEST-001-001-CN010066,CN010066,CN010,58,F,,,PBO,PBO,PBO,PBO,0,2025-01-09,2025-06-26,Y,Y,COMPLETED/ONGOING
TEST-001-001,TEST-001-001-CN010085,CN010085,CN010,58,M,,,TRT,TRT,TRT,TRT,1,2025-01-28,2025-07-15,Y,Y,COMPLETED/ONGOING
TEST-001-001,TEST-001-001-CN010102,CN010102,CN010,66,M,,,PBO,PBO,PBO,PBO,0,2025-05-20,2025-11-04,Y,Y,COMPLETED/ONGOING
TEST-001-001,TEST-001-001-CN010106,CN010106,CN010,54,F,,,PBO,PBO,PBO,PBO,0,2025-01-09,2025-06-26,Y,Y,COMPLETED/ONGOING
TEST-001-001,TEST-001-001-CN010111,CN010111,CN010,65,F,,,PBO,PBO,PBO,PBO,0,2025-03-14,2025-09-17,Y,Y,DISCONTINUED
TEST-001-001,TEST-001-001-CN010113,CN010113,CN010,54,M,,,TRT,TRT,TRT,TRT,1,2025-03-01,2025-08-16,Y,Y,COMPLETED/ONGOING
TEST-001-001,TEST-001-001-CN010116,CN010116,CN010,61,F,,,TRT,TRT,TRT,TRT,1,2025-01-13,2025-06-30,Y,Y,COMPLETED/ONGOING
TEST-001-001,TEST-001-001-CN010130,CN010130,CN010,51,F,,,PBO,PBO,PBO,PBO,0,2025-02-13,2025-07-31,Y,Y,COMPLETED/ONGOING
TEST-001-001,TEST-001-001-CN010151,CN010151,CN010,53,F,,,PBO,PBO,PBO,PBO,0,2025-04-19,2025-10-04,Y,Y,COMPLETED/ONGOING
TEST-001-001,TEST-001-001-CN010162,CN010162,CN010,51,M,,,TRT,TRT,TRT,TRT,1,2025-02-16,2025-03-21,Y,Y,DISCONTINUED
TEST-001-001,TEST-001-001-CN010174,CN010174,CN010,67,F,,,TRT,TRT,TRT,TRT,1,2025-04-19,2025-10-04,Y,Y,COMPLETED/ONGOING
TEST-001-001,TEST-001-001-CN010189,CN010189,CN010,46,M,,,PBO,PBO,PBO,PBO,0,2025-03-04,2025-08-19,Y,Y,COMPLETED/ONGOING
