STUDYID,DOMAIN,USUBJID,AESEQ,AETERM,AEDECOD,AESOC,AESTDTC,AEENDTC,AESEV,AESER,AEREL
TEST-001-001,AE,TEST-001-001-CN001001,1,NAUSEA,,,2025-05-06,2025-05-13,MILD,,
TEST-001-001,AE,TEST-001-001-CN001001,2,AST INCREASED,,,2025-06-11,2025-06-27,MILD,,NOT RELATED
TEST-001-001,AE,TEST-001-001-CN001001,3,ALT INCREASED,,,2025-05-20,2025-05-23,MILD,,RELATED
TEST-001-001,AE,TEST-001-001-CN004002,1,FATIGUE,,,2025-04-07,2025-04-17,MILD,,RELATED
TEST-001-001,AE,TEST-001-001-CN004002,2,NAUSEA,,,2025-04-10,2025-04-29,MODERATE,,NOT RELATED
TEST-001-001,AE,TEST-001-001-CN004002,3,ALT INCREASED,,,2025-04-10,2025-04-27,MILD,,NOT RELATED
TEST-001-001,AE,TEST-001-001-CN003003,1,ALT INCREASED,,,2025-04-12,2025-04-24,MODERATE,,NOT RELATED
TEST-001-001,AE,TEST-001-001-CN003003,2,NAUSEA,,,2025-05-04,2025-05-09,SEVERE,,RELATED
TEST-001-001,AE,TEST-001-001-CN006005,1,NAUSEA,,,2025-05-04,2025-05-21,MILD,,NOT RELATED
TEST-001-001,AE,TEST-001-001-CN006005,2,ALT INCREASED,,,2025-05-31,2025-06-10,MILD,,NOT RELATED
TEST-001-001,AE,TEST-001-001-CN006005,3,NAUSEA,,,2025-07-20,2025-08-04,MODERATE,,RELATED
TEST-001-001,AE,TEST-001-001-CN004009,1,ALT INCREASED,,,2025-06-02,2025-06-07,MODERATE,,NOT RELATED
TEST-001-001,AE,TEST-001-001-CN004009,2,HYPOGLYCAEMIA,,,2025-08-10,2025-08-23,MILD,,NOT RELATED
TEST-001-001,AE,TEST-001-001-CN009010,1,ALT INCREASED,,,2025-06-22,2025-07-05,MILD,,
TEST-001-001,AE,TEST-001-001-CN009015,1,NAUSEA,,,2025-05-05,2025-05-12,MILD,,NOT RELATED
TEST-001-001,AE,TEST-001-001-CN009016,1,FATIGUE,,,2025-02-22,2025-03-07,MILD,,NOT RELATED
TEST-001-001,AE,TEST-001-001-CN010020,1,NAUSEA,,,2025-06-15,2025-06-19,MILD,,NOT RELATED
TEST-001-001,AE,TEST-001-001-CN010021,1,ALT INCREASED,,,2025-10-06,2025-10-08,MILD,,NOT RELATED
TEST-001-001,AE,TEST-001-001-CN009025,1,HYPOGLYCAEMIA,,,2025-07-03,2025-07-15,MILD,,NOT RELATED
TEST-001-001,AE,TEST-001-001-CN009025,2,NAUSEA,,,2025-04-26,2025-05-05,SEVERE,,NOT RELATED
TEST-001-001,AE,TEST-001-001-CN006027,1,AST INCREASED,,,2025-05-18,2025-05-31,SEVERE,,NOT RELATED
TEST-001-001,AE,TEST-001-001-CN005028,1,FATIGUE,,,2025-08-05,2025-08-24,SEVERE,,RELATED
TEST-001-001,AE,TEST-001-001-CN005028,2,NAUSEA,,,2025-07-16,2025-08-02,SEVERE,,RELATED
TEST-001-001,AE,TEST-001-001-CN010029,1,FATIGUE,,,2025-06-12,2025-06-23,SEVERE,,NOT RELATED
TEST-001-001,AE,TEST-001-001-CN004033,1,NAUSEA,,,2025-06-14,2025-06-16,MODERATE,,
TEST-001-001,AE,TEST-001-001-CN005034,1,ALT INCREASED,,,2025-04-15,2025-05-02,SEVERE,,RELATED
TEST-001-001,AE,TEST-001-001-CN005036,1,ALT INCREASED,,,2025-06-05,2025-06-07,MILD,,NOT RELATED
TEST-001-001,AE,TEST-001-001-CN007037,1,ALT INCREASED,,,2025-05-17,2025-05-22,SEVERE,,RELATED
TEST-001-001,AE,TEST-001-001-CN009038,1,HYPOGLYCAEMIA,,,2025-06-28,2025-07-04,MILD,,RELATED
TEST-001-001,AE,TEST-001-001-CN009038,2,NAUSEA,,,2025-08-26,2025-09-07,MILD,,RELATED
TEST-001-001,AE,TEST-001-001-CN009038,3,AST INCREASED,,,2025-07-28,2025-08-04,MILD,,
TEST-001-001,AE,TEST-001-001-CN003040,1,FATIGUE,,,2025-04-14,2025-04-21,MILD,,
TEST-001-001,AE,TEST-001-001-CN003040,2,AST INCREASED,,,2025-05-25,2025-05-29,MODERATE,,NOT RELATED
TEST-001-001,AE,TEST-001-001-CN003040,3,AST INCREASED,,,2025-04-03,2025-04-11,MODERATE,,RELATED
TEST-001-001,AE,TEST-001-001-CN004042,1,AST INCREASED,,,2025-08-24,2025-09-10,MILD,,RELATED
TEST-001-001,AE,TEST-001-001-CN006043,1,ALT INCREASED,,,2025-04-10,2025-04-21,MODERATE,,NOT RELATED
TEST-001-001,AE,TEST-001-001-CN006048,1,ALT INCREASED,,,2025-06-13,2025-06-23,MODERATE,,RELATED
TEST-001-001,AE,TEST-001-001-CN006048,2,FATIGUE,,,2025-05-24,2025-05-27,MILD,,NOT RELATED
TEST-001-001,AE,TEST-001-001-CN004050,1,AST INCREASED,,,2025-05-05,2025-05-07,MILD,,RELATED
TEST-001-001,AE,TEST-001-001-CN004050,2,ALT INCREASED,,,2025-06-10,2025-06-24,MILD,,RELATED
TEST-001-001,AE,TEST-001-001-CN004050,3,NAUSEA,,,2025-06-11,2025-06-29,MODERATE,,NOT RELATED
TEST-001-001,AE,TEST-001-001-CN006053,1,ALT INCREASED,,,2025-05-18,2025-05-29,MILD,,RELATED
TEST-001-001,AE,TEST-001-001-CN006053,2,ALT INCREASED,,,2025-08-02,2025-08-16,MILD,,NOT RELATED
TEST-001-001,AE,TEST-001-001-CN006055,1,FATIGUE,,,2025-08-22,2025-08-24,MODERATE,,
TEST-001-001,AE,TEST-001-001-CN006055,2,FATIGUE,,,2025-06-02,2025-06-11,MODERATE,,NOT RELATED
TEST-001-001,AE,TEST-001-001-CN004057,1,ALT INCREASED,,,2025-08-03,2025-08-13,MILD,,RELATED
TEST-001-001,AE,TEST-001-001-CN004057,2,AST INCREASED,,,2025-09-02,2025-09-04,MODERATE,,NOT RELATED
TEST-001-001,AE,TEST-001-001-CN004057,3,FATIGUE,,,2025-07-16,2025-08-01,MILD,,RELATED
TEST-001-001,AE,TEST-001-001-CN007058,1,NAUSEA,,,2025-09-24,2025-10-07,MILD,,NOT RELATED
TEST-001-001,AE,TEST-001-001-CN007058,2,NAUSEA,,,2025-06-05,2025-06-20,MODERATE,,NOT RELATED
TEST-001-001,AE,TEST-001-001-CN009059,1,HYPOGLYCAEMIA,,,2025-06-15,2025-06-24,MILD,,
TEST-001-001,AE,TEST-001-001-CN006061,1,NAUSEA,,,2025-02-16,2025-02-18,MILD,,RELATED
TEST-001-001,AE,TEST-001-001-CN006061,2,ALT INCREASED,,,2025-02-24,2025-02-26,MILD,,NOT RELATED
TEST-001-001,AE,TEST-001-001-CN006061,3,ALT INCREASED,,,2025-02-25,2025-02-27,MILD,,RELATED
TEST-001-001,AE,TEST-001-001-CN002062,1,AST INCREASED,,,2025-02-27,2025-03-05,MILD,,RELATED
TEST-001-001,AE,TEST-001-001-CN002062,2,AST INCREASED,,,2025-03-21,2025-04-06,MILD,,RELATED
TEST-001-001,AE,TEST-001-001-CN002062,3,FATIGUE,,,2025-05-23,2025-06-05,SEVERE,,
TEST-001-001,AE,TEST-001-001-CN009065,1,HYPOGLYCAEMIA,,,2025-07-16,2025-07-31,MODERATE,,NOT RELATED
TEST-001-001,AE,TEST-001-001-CN009065,2,ALT INCREASED,,,2025-05-23,2025-05-31,MODERATE,,NOT RELATED
TEST-001-001,AE,TEST-001-001-CN002068,1,FATIGUE,,,2025-07-28,2025-07-29,MILD,,RELATED
TEST-001-001,AE,TEST-001-001-CN002068,2,HYPOGLYCAEMIA,,,2025-08-31,2025-09-13,MILD,,RELATED
TEST-001-001,AE,TEST-001-001-CN003069,1,NAUSEA,,,2025-03-07,2025-03-24,MODERATE,,RELATED
TEST-001-001,AE,TEST-001-001-CN005071,1,HYPOGLYCAEMIA,,,2025-02-11,2025-02-22,MODERATE,,RELATED
TEST-001-001,AE,TEST-001-001-CN005071,2,HYPOGLYCAEMIA,,,2025-02-09,2025-02-26,MODERATE,,
TEST-001-001,AE,TEST-001-001-CN005071,3,FATIGUE,,,2025-06-21,2025-06-22,MODERATE,,RELATED
TEST-001-001,AE,TEST-001-001-CN006072,1,ALT INCREASED,,,2025-03-18,2025-03-19,SEVERE,,RELATED
TEST-001-001,AE,TEST-001-001-CN006072,2,ALT INCREASED,,,2025-03-03,2025-03-20,SEVERE,,RELATED
TEST-001-001,AE,TEST-001-001-CN006072,3,NAUSEA,,,2025-03-27,2025-04-14,MODERATE,,NOT RELATED
TEST-001-001,AE,TEST-001-001-CN006073,1,AST INCREASED,,,2025-03-09,2025-03-18,MILD,,NOT RELATED
TEST-001-001,AE,TEST-001-001-CN006073,2,FATIGUE,,,2025-05-25,2025-06-03,MODERATE,,NOT RELATED
TEST-001-001,AE,TEST-001-001-CN006073,3,AST INCREASED,,,2025-06-15,2025-07-03,MILD,,NOT RELATED
TEST-001-001,AE,TEST-001-001-CN001074,1,ALT INCREASED,,,2025-06-16,2025-06-30,MODERATE,,RELATED
TEST-001-001,AE,TEST-001-001-CN001074,2,ALT INCREASED,,,2025-02-24,2025-03-03,MODERATE,,RELATED
TEST-001-001,AE,TEST-001-001-CN003075,1,AST INCREASED,,,2025-07-29,2025-08-06,MILD,,NOT RELATED
TEST-001-001,AE,TEST-001-001-CN003075,2,AST INCREASED,,,2025-05-05,2025-05-15,MODERATE,,RELATED
TEST-001-001,AE,TEST-001-001-CN003075,3,AST INCREASED,,,2025-07-16,2025-07-24,MILD,,RELATED
TEST-001-001,AE,TEST-001-001-CN008077,1,FATIGUE,,,2025-03-20,2025-04-03,MILD,,RELATED
TEST-001-001,AE,TEST-001-001-CN008077,2,ALT INCREASED,,,2025-04-16,2025-04-26,SEVERE,,NOT RELATED
TEST-001-001,AE,TEST-001-001-CN005078,1,HYPOGLYCAEMIA,,,2025-03-29,2025-04-11,MODERATE,,NOT RELATED
TEST-001-001,AE,TEST-001-001-CN005078,2,FATIGUE,,,2025-05-24,2025-06-06,MILD,,NOT RELATED
TEST-001-001,AE,TEST-001-001-CN005078,3,FATIGUE,,,2025-03-17,2025-04-05,MILD,,RELATED
TEST-001-001,AE,TEST-001-001-CN005079,1,AST INCREASED,,,2025-07-21,2025-08-07,MILD,,RELATED
TEST-001-001,AE,TEST-001-001-CN003080,1,AST INCREASED,,,2025-08-15,2025-09-01,MILD,,RELATED
TEST-001-001,AE,TEST-001-001-CN003080,2,NAUSEA,,,2025-05-27,2025-06-03,MILD,,RELATED
TEST-001-001,AE,TEST-001-001-CN003080,3,AST INCREASED,,,2025-05-03,2025-05-20,MODERATE,,
TEST-001-001,AE,TEST-001-001-CN001081,1,NAUSEA,,,2025-08-24,2025-08-30,MILD,,NOT RELATED
TEST-001-001,AE,TEST-001-001-CN001081,2,FATIGUE,,,2025-05-17,2025-05-26,MILD,,RELATED
TEST-001-001,AE,TEST-001-001-CN001081,3,ALT INCREASED,,,2025-08-23,2025-08-31,MILD,,
TEST-001-001,AE,TEST-001-001-CN003082,1,AST INCREASED,,,2025-04-18,2025-05-04,MODERATE,,RELATED
TEST-001-001,AE,TEST-001-001-CN003082,2,NAUSEA,,,2025-04-02,2025-04-13,MILD,,RELATED
TEST-001-001,AE,TEST-001-001-CN009083,1,ALT INCREASED,,,2025-06-26,2025-07-15,MODERATE,,RELATED
TEST-001-001,AE,TEST-001-001-CN009083,2,FATIGUE,,,2025-06-20,2025-07-09,MILD,,RELATED
TEST-001-001,AE,TEST-001-001-CN009083,3,NAUSEA,,,2025-05-13,2025-05-15,MILD,,NOT RELATED
TEST-001-001,AE,TEST-001-001-CN006084,1,ALT INCREASED,,,2025-04-22,2025-04-27,MODERATE,,RELATED
TEST-001-001,AE,TEST-001-001-CN009090,1,AST INCREASED,,,2025-05-08,2025-05-17,MODERATE,,RELATED
TEST-001-001,AE,TEST-001-001-CN009090,2,AST INCREASED,,,2025-07-29,2025-08-01,MODERATE,,NOT RELATED
TEST-001-001,AE,TEST-001-001-CN004094,1,ALT INCREASED,,,2025-05-02,2025-05-12,MILD,,NOT RELATED
TEST-001-001,AE,TEST-001-001-CN002097,1,ALT INCREASED,,,2025-05-28,2025-06-13,MILD,,RELATED
TEST-001-001,AE,TEST-001-001-CN002097,2,AST INCREASED,,,2025-05-23,2025-05-28,MILD,,NOT RELATED
TEST-001-001,AE,TEST-001-001-CN006100,1,FATIGUE,,,2025-09-10,2025-09-12,MODERATE,,
TEST-001-001,AE,TEST-001-001-CN006100,2,AST INCREASED,,,2025-08-27,2025-09-12,MILD,,NOT RELATED
TEST-001-001,AE,TEST-001-001-CN006100,3,FATIGUE,,,2025-06-17,2025-06-25,MILD,,NOT RELATED
TEST-001-001,AE,TEST-001-001-CN009101,1,NAUSEA,,,2025-09-06,2025-09-07,MILD,,RELATED
TEST-001-001,AE,TEST-001-001-CN010102,1,HYPOGLYCAEMIA,,,2025-09-14,2025-09-28,MODERATE,,NOT RELATED
TEST-001-001,AE,TEST-001-001-CN003103,1,HYPOGLYCAEMIA,,,2025-05-16,2025-05-18,MODERATE,,RELATED
TEST-001-001,AE,TEST-001-001-CN003103,2,ALT INCREASED,,,2025-06-10,2025-06-18,MILD,,
TEST-001-001,AE,TEST-001-001-CN003103,3,FATIGUE,,,2025-03-17,2025-03-20,MILD,,RELATED
TEST-001-001,AE,TEST-001-001-CN009104,1,NAUSEA,,,2025-03-12,2025-03-27,SEVERE,,NOT RELATED
TEST-001-001,AE,TEST-001-001-CN004105,1,NAUSEA,,,2025-09-01,2025-09-09,MILD,,
TEST-001-001,AE,TEST-001-001-CN004105,2,HYPOGLYCAEMIA,,,2025-06-20,2025-07-07,MODERATE,,
TEST-001-001,AE,TEST-001-001-CN004105,3,HYPOGLYCAEMIA,,,2025-04-29,2025-05-15,MILD,,
TEST-001-001,AE,TEST-001-001-CN005107,1,ALT INCREASED,,,2025-09-03,2025-09-09,MODERATE,,NOT RELATED
TEST-001-001,AE,TEST-001-001-CN005107,2,AST INCREASED,,,2025-07-29,2025-08-14,MILD,,NOT RELATED
TEST-001-001,AE,TEST-001-001-CN005107,3,AST INCREASED,,,2025-05-28,2025-06-08,MODERATE,,NOT RELATED
TEST-001-001,AE,TEST-001-001-CN009110,1,HYPOGLYCAEMIA,,,2025-05-27,2025-05-31,MODERATE,,NOT RELATED
TEST-001-001,AE,TEST-001-001-CN009110,2,HYPOGLYCAEMIA,,,2025-05-28,2025-06-11,MILD,,RELATED
TEST-001-001,AE,TEST-001-001-CN005112,1,NAUSEA,,,2025-03-08,2025-03-11,MILD,,
TEST-001-001,AE,TEST-001-001-CN005112,2,FATIGUE,,,2025-07-14,2025-07-28,MILD,,NOT RELATED
TEST-001-001,AE,TEST-001-001-CN010113,1,FATIGUE,,,2025-04-25,2025-05-07,MILD,,NOT RELATED
TEST-001-001,AE,TEST-001-001-CN010113,2,NAUSEA,,,2025-07-02,2025-07-13,MILD,,NOT RELATED
TEST-001-001,AE,TEST-001-001-CN010113,3,NAUSEA,,,2025-04-18,2025-04-20,MODERATE,,NOT RELATED
TEST-001-001,AE,TEST-001-001-CN003115,1,AST INCREASED,,,2025-07-10,2025-07-14,MILD,,NOT RELATED
TEST-001-001,AE,TEST-001-001-CN003115,2,FATIGUE,,,2025-08-07,2025-08-10,SEVERE,,RELATED
TEST-001-001,AE,TEST-001-001-CN008119,1,NAUSEA,,,2025-04-02,2025-04-12,MILD,,NOT RELATED
TEST-001-001,AE,TEST-001-001-CN008119,2,NAUSEA,,,2025-07-03,2025-07-15,MILD,,NOT RELATED
TEST-001-001,AE,TEST-001-001-CN007121,1,ALT INCREASED,,,2025-05-08,2025-05-14,SEVERE,,NOT RELATED
TEST-001-001,AE,TEST-001-001-CN007121,2,HYPOGLYCAEMIA,,,2025-06-04,2025-06-12,MODERATE,,RELATED
TEST-001-001,AE,TEST-001-001-CN007121,3,ALT INCREASED,,,2025-06-23,2025-06-24,MODERATE,,
TEST-001-001,AE,TEST-001-001-CN005126,1,NAUSEA,,,2025-05-15,2025-05-17,MILD,,RELATED
TEST-001-001,AE,TEST-001-001-CN005126,2,HYPOGLYCAEMIA,,,2025-06-10,2025-06-16,MILD,,RELATED
TEST-001-001,AE,TEST-001-001-CN001127,1,ALT INCREASED,,,2025-05-15,2025-06-03,MILD,,RELATED
TEST-001-001,AE,TEST-001-001-CN001127,2,FATIGUE,,,2025-06-04,2025-06-05,SEVERE,,NOT RELATED
TEST-001-001,AE,TEST-001-001-CN010130,1,FATIGUE,,,2025-06-11,2025-06-29,MILD,,RELATED
TEST-001-001,AE,TEST-001-001-CN010130,2,FATIGUE,,,2025-02-24,2025-03-06,MODERATE,,NOT RELATED
TEST-001-001,AE,TEST-001-001-CN008132,1,FATIGUE,,,2025-06-13,2025-06-27,MILD,,NOT RELATED
TEST-001-001,AE,TEST-001-001-CN008132,2,ALT INCREASED,,,2025-06-11,2025-06-27,MILD,,RELATED
TEST-001-001,AE,TEST-001-001-CN008132,3,HYPOGLYCAEMIA,,,2025-03-18,2025-03-22,MILD,,RELATED
TEST-001-001,AE,TEST-001-001-CN001133,1,NAUSEA,,,2025-07-03,2025-07-15,SEVERE,,NOT RELATED
TEST-001-001,AE,TEST-001-001-CN001133,2,FATIGUE,,,2025-06-17,2025-07-05,MILD,,NOT RELATED
TEST-001-001,AE,TEST-001-001-CN006134,1,ALT INCREASED,,,2025-08-15,2025-09-03,MILD,,NOT RELATED
TEST-001-001,AE,TEST-001-001-CN006134,2,FATIGUE,,,2025-07-30,2025-08-13,MODERATE,,RELATED
TEST-001-001,AE,TEST-001-001-CN006134,3,NAUSEA,,,2025-10-09,2025-10-19,MILD,,NOT RELATED
TEST-001-001,AE,TEST-001-001-CN005136,1,HYPOGLYCAEMIA,,,2025-06-23,2025-07-07,MODERATE,,
TEST-001-001,AE,TEST-001-001-CN005136,2,AST INCREASED,,,2025-07-17,2025-07-21,MILD,,RELATED
TEST-001-001,AE,TEST-001-001-CN002137,1,ALT INCREASED,,,2025-02-20,2025-02-26,MODERATE,,
TEST-001-001,AE,TEST-001-001-CN002137,2,FATIGUE,,,2025-05-23,2025-06-04,MODERATE,,NOT RELATED
TEST-001-001,AE,TEST-001-001-CN003138,1,HYPOGLYCAEMIA,,,2025-08-17,2025-08-29,MILD,,RELATED
TEST-001-001,AE,TEST-001-001-CN008139,1,HYPOGLYCAEMIA,,,2025-04-26,2025-04-27,MILD,,NOT RELATED
TEST-001-001,AE,TEST-001-001-CN008139,2,AST INCREASED,,,2025-06-07,2025-06-26,SEVERE,,RELATED
TEST-001-001,AE,TEST-001-001-CN008139,3,HYPOGLYCAEMIA,,,2025-02-25,2025-03-13,MODERATE,,
TEST-001-001,AE,TEST-001-001-CN003141,1,HYPOGLYCAEMIA,,,2025-08-13,2025-08-20,MILD,,NOT RELATED
TEST-001-001,AE,TEST-001-001-CN006144,1,AST INCREASED,,,2025-03-29,2025-04-13,MILD,,
TEST-001-001,AE,TEST-001-001-CN006144,2,FATIGUE,,,2025-02-08,2025-02-16,MILD,,RELATED
TEST-001-001,AE,TEST-001-001-CN009145,1,AST INCREASED,,,2025-04-07,2025-04-09,MILD,,RELATED
TEST-001-001,AE,TEST-001-001-CN009145,2,FATIGUE,,,2025-04-30,2025-05-18,MILD,,RELATED
TEST-001-001,AE,TEST-001-001-CN009146,1,FATIGUE,,,2025-10-02,2025-10-16,MILD,,RELATED
TEST-001-001,AE,TEST-001-001-CN003147,1,NAUSEA,,,2025-08-02,2025-08-20,MILD,,NOT RELATED
TEST-001-001,AE,TEST-001-001-CN003147,2,ALT INCREASED,,,2025-08-08,2025-08-20,MILD,,RELATED
TEST-001-001,AE,TEST-001-001-CN003147,3,AST INCREASED,,,2025-05-28,2025-05-29,MILD,,RELATED
TEST-001-001,AE,TEST-001-001-CN009148,1,AST INCREASED,,,2025-06-01,2025-06-16,MILD,,NOT RELATED
TEST-001-001,AE,TEST-001-001-CN009148,2,FATIGUE,,,2025-06-06,2025-06-09,MILD,,RELATED
TEST-001-001,AE,TEST-001-001-CN009148,3,FATIGUE,,,2025-07-27,2025-08-03,MODERATE,,RELATED
TEST-001-001,AE,TEST-001-001-CN008150,1,HYPOGLYCAEMIA,,,2025-07-07,2025-07-15,MILD,,RELATED
TEST-001-001,AE,TEST-001-001-CN008150,2,AST INCREASED,,,2025-03-11,2025-03-19,SEVERE,,NOT RELATED
TEST-001-001,AE,TEST-001-001-CN008150,3,NAUSEA,,,2025-05-22,2025-06-03,MILD,,NOT RELATED
TEST-001-001,AE,TEST-001-001-CN004152,1,HYPOGLYCAEMIA,,,2025-06-20,2025-07-09,MODERATE,,
TEST-001-001,AE,TEST-001-001-CN004152,2,HYPOGLYCAEMIA,,,2025-08-23,2025-09-11,MODERATE,,NOT RELATED
TEST-001-001,AE,TEST-001-001-CN004152,3,FATIGUE,,,2025-05-30,2025-06-01,MILD,,NOT RELATED
TEST-001-001,AE,TEST-001-001-CN007153,1,NAUSEA,,,2025-03-17,2025-04-04,MILD,,RELATED
TEST-001-001,AE,TEST-001-001-CN002154,1,HYPOGLYCAEMIA,,,2025-05-18,2025-05-22,MILD,,RELATED
TEST-001-001,AE,TEST-001-001-CN002154,2,AST INCREASED,,,2025-03-13,2025-03-28,MILD,,RELATED
TEST-001-001,AE,TEST-001-001-CN008155,1,FATIGUE,,,2025-04-02,2025-04-21,MODERATE,,NOT RELATED
TEST-001-001,AE,TEST-001-001-CN008155,2,ALT INCREASED,,,2025-08-01,2025-08-15,MODERATE,,RELATED
TEST-001-001,AE,TEST-001-001-CN008155,3,ALT INCREASED,,,2025-07-14,2025-07-30,MILD,,
TEST-001-001,AE,TEST-001-001-CN002157,1,HYPOGLYCAEMIA,,,2025-06-14,2025-06-24,MODERATE,,RELATED
TEST-001-001,AE,TEST-001-001-CN002157,2,AST INCREASED,,,2025-06-07,2025-06-17,MODERATE,,
TEST-001-001,AE,TEST-001-001-CN005158,1,HYPOGLYCAEMIA,,,2025-04-16,2025-04-25,MILD,,NOT RELATED
TEST-001-001,AE,TEST-001-001-CN005158,2,ALT INCREASED,,,2025-04-09,2025-04-24,MILD,,NOT RELATED
TEST-001-001,AE,TEST-001-001-CN009160,1,FATIGUE,,,2025-06-06,2025-06-24,MILD,,NOT RELATED
TEST-001-001,AE,TEST-001-001-CN002164,1,AST INCREASED,,,2025-06-04,2025-06-18,MILD,,NOT RELATED
TEST-001-001,AE,TEST-001-001-CN002164,2,HYPOGLYCAEMIA,,,2025-08-26,2025-09-12,MILD,,NOT RELATED
TEST-001-001,AE,TEST-001-001-CN002164,3,NAUSEA,,,2025-08-14,2025-08-26,MILD,,RELATED
TEST-001-001,AE,TEST-001-001-CN007165,1,ALT INCREASED,,,2025-04-05,2025-04-13,MILD,,NOT RELATED
TEST-001-001,AE,TEST-001-001-CN007165,2,FATIGUE,,,2025-02-10,2025-02-27,SEVERE,,NOT RELATED
TEST-001-001,AE,TEST-001-001-CN006166,1,AST INCREASED,,,2025-09-13,2025-09-23,MILD,,NOT RELATED
TEST-001-001,AE,TEST-001-001-CN006166,2,FATIGUE,,,2025-08-11,2025-08-30,MILD,,NOT RELATED
TEST-001-001,AE,TEST-001-001-CN006166,3,NAUSEA,,,2025-05-26,2025-06-13,MODERATE,,RELATED
TEST-001-001,AE,TEST-001-001-CN008167,1,FATIGUE,,,2025-08-20,2025-09-01,MODERATE,,RELATED
TEST-001-001,AE,TEST-001-001-CN008167,2,AST INCREASED,,,2025-03-22,2025-04-10,MODERATE,,
TEST-001-001,AE,TEST-001-001-CN002168,1,AST INCREASED,,,2025-05-30,2025-06-03,SEVERE,,NOT RELATED
TEST-001-001,AE,TEST-001-001-CN002168,2,FATIGUE,,,2025-03-02,2025-03-09,MILD,,NOT RELATED
TEST-001-001,AE,TEST-001-001-CN002168,3,ALT INCREASED,,,2025-03-23,2025-04-09,MILD,,RELATED
TEST-001-001,AE,TEST-001-001-CN006169,1,NAUSEA,,,2025-06-22,2025-07-06,MODERATE,,RELATED
TEST-001-001,AE,TEST-001-001-CN006169,2,AST INCREASED,,,2025-04-04,2025-04-20,MILD,,RELATED
TEST-001-001,AE,TEST-001-001-CN004171,1,FATIGUE,,,2025-08-01,2025-08-20,SEVERE,,NOT RELATED
TEST-001-001,AE,TEST-001-001-CN004171,2,ALT INCREASED,,,2025-07-25,2025-07-27,MODERATE,,NOT RELATED
TEST-001-001,AE,TEST-001-001-CN010174,1,HYPOGLYCAEMIA,,,2025-06-01,2025-06-08,SEVERE,,NOT RELATED
TEST-001-001,AE,TEST-001-001-CN010174,2,FATIGUE,,,2025-05-04,2025-05-11,MILD,,RELATED
TEST-001-001,AE,TEST-001-001-CN010174,3,NAUSEA,,,2025-06-13,2025-06-21,MILD,,RELATED
TEST-001-001,AE,TEST-001-001-CN005175,1,NAUSEA,,,2025-08-04,2025-08-05,MILD,,RELATED
TEST-001-001,AE,TEST-001-001-CN005175,2,FATIGUE,,,2025-06-16,2025-06-22,MODERATE,,NOT RELATED
TEST-001-001,AE,TEST-001-001-CN005175,3,HYPOGLYCAEMIA,,,2025-06-20,2025-06-21,MILD,,NOT RELATED
TEST-001-001,AE,TEST-001-001-CN009179,1,NAUSEA,,,2025-11-05,2025-11-19,MILD,,NOT RELATED
TEST-001-001,AE,TEST-001-001-CN009179,2,NAUSEA,,,2025-08-28,2025-09-06,MILD,,RELATED
TEST-001-001,AE,TEST-001-001-CN009179,3,FATIGUE,,,2025-08-02,2025-08-12,MILD,,
TEST-001-001,AE,TEST-001-001-CN006182,1,NAUSEA,,,2025-04-05,2025-04-09,MILD,,NOT RELATED
TEST-001-001,AE,TEST-001-001-CN006183,1,HYPOGLYCAEMIA,,,2025-05-04,2025-05-22,MILD,,RELATED
TEST-001-001,AE,TEST-001-001-CN006183,2,AST INCREASED,,,2025-08-12,2025-08-17,MODERATE,,RELATED
TEST-001-001,AE,TEST-001-001-CN006183,3,FATIGUE,,,2025-04-06,2025-04-09,MODERATE,,NOT RELATED
TEST-001-001,AE,TEST-001-001-CN009184,1,FATIGUE,,,2025-05-31,2025-06-07,SEVERE,,RELATED
TEST-001-001,AE,TEST-001-001-CN009184,2,HYPOGLYCAEMIA,,,2025-03-05,2025-03-14,MODERATE,,
TEST-001-001,AE,TEST-001-001-CN002185,1,HYPOGLYCAEMIA,,,2025-04-16,2025-04-27,MILD,,NOT RELATED
TEST-001-001,AE,TEST-001-001-CN002185,2,FATIGUE,,,2025-08-09,2025-08-19,MODERATE,,RELATED
TEST-001-001,AE,TEST-001-001-CN009186,1,ALT INCREASED,,,2025-06-17,2025-06-25,MILD,,RELATED
TEST-001-001,AE,TEST-001-001-CN009186,2,FATIGUE,,,2025-07-11,2025-07-25,MILD,,
TEST-001-001,AE,TEST-001-001-CN005191,1,HYPOGLYCAEMIA,,,2025-09-08,2025-09-22,MILD,,NOT RELATED
TEST-001-001,AE,TEST-001-001-CN005191,2,AST INCREASED,,,2025-07-31,2025-08-12,MILD,,NOT RELATED
TEST-001-001,AE,TEST-001-001-CN004193,1,FATIGUE,,,2025-06-26,2025-06-30,MILD,,RELATED
TEST-001-001,AE,TEST-001-001-CN004193,2,NAUSEA,,,2025-06-16,2025-06-19,MILD,,RELATED
TEST-001-001,AE,TEST-001-001-CN007194,1,ALT INCREASED,,,2025-05-04,2025-05-19,MILD,,NOT RELATED
TEST-001-001,AE,TEST-001-001-CN007194,2,AST INCREASED,,,2025-03-30,2025-04-17,MILD,,RELATED
TEST-001-001,AE,TEST-001-001-CN004195,1,AST INCREASED,,,2025-09-06,2025-09-25,MODERATE,,RELATED
TEST-001-001,AE,TEST-001-001-CN004195,2,ALT INCREASED,,,2025-07-29,2025-08-11,MODERATE,,NOT RELATED
TEST-001-001,AE,TEST-001-001-CN004195,3,AST INCREASED,,,2025-06-17,2025-06-25,SEVERE,,NOT RELATED
TEST-001-001,AE,TEST-001-001-CN008198,1,ALT INCREASED,,,2025-07-17,2025-07-19,MODERATE,,NOT RELATED
TEST-001-001,AE,TEST-001-001-CN008198,2,AST INCREASED,,,2025-03-28,2025-04-07,MILD,,RELATED
TEST-001-001,AE,TEST-001-001-CN004200,1,HYPOGLYCAEMIA,,,2025-06-03,2025-06-14,MILD,,RELATED
TEST-001-001,AE,TEST-001-001-CN004200,2,AST INCREASED,,,2025-04-18,2025-04-25,MILD,,RELATED
TEST-001-001,AE,TEST-001-001-CN004200,3,HYPOGLYCAEMIA,,,2025-07-25,2025-08-06,MODERATE,,RELATED
